<?xml version="1.0" encoding="UTF-8"?>
<?xml-stylesheet type="text/xsl" href="define2-0-0.xsl"?>
<!-- ********************************************************************************** -->
<!-- File: define2-0-0-example-adam.xml                                                 -->
<!-- Author: CDISC ADaM Metadata Team                                                   -->
<!-- Release Notes:                                                                     -->
<!-- 1. If the define.xml document includes a style sheet reference (i.e, uncommented   -->
<!--    line #2 in  this example) and the style sheet is available in the location      -->
<!--    specified in the href attribute, most browser applications will display and     -->
<!--    format the contents of the define.xml document based on the stylesheet          -->
<!--    instructions.                                                                   -->
<!--    a. The href attribute should be adjusted as necessary to reflect the            -->
<!--       corresponding stylesheet location.                                           -->
<!--    b. The stylesheet should have been developed to interpret the Define-XML        -->
<!--       specification version indicated in the define.xml document.                  -->
<!--    c. The resulting HTML presentation and the availability and usability of        -->
<!--       functions will vary depending upon which browser application is used.        -->
<!--    d. At the time this example was released, the Google Chrome browser does not    -->
<!--       render an XML file by using an XSL stylesheet on a local system, and for     --> 
<!--       other browsers it may depend on extensions that the user has installed.      -->
<!-- ********************************************************************************** -->
<ODM xmlns="http://www.cdisc.org/ns/odm/v1.3" 
     xmlns:def="http://www.cdisc.org/ns/def/v2.0" 
     xmlns:xlink="http://www.w3.org/1999/xlink"
     ODMVersion="1.3.2" 
     FileOID="CDISC-Sample" 
     FileType="Snapshot" 
     CreationDateTime="2013-03-03T14:47:00"
     Originator="CDISC ADaM Metadata Team"
     >

  <!-- ******************************************  -->
  <!-- OID conventions used in this example:       -->
  <!--    MetaDataVersion         = MDV.           -->
  <!--    def:leaf, leafID        = LF.            -->
  <!--    def:ValueListDef        = VL.            -->
  <!--    def:WhereClauseDef      = WC.            -->
  <!--    ItemGroupDef            = IG.            -->
  <!--    ItemDef                 = IT.            -->
  <!--    CodeList                = CL.            -->
  <!--    MethodDef               = MT.            -->
  <!--    def:CommentDef          = COM.           -->
  <!-- ******************************************  -->

  <Study OID="CDISC-Sample">
    <GlobalVariables>
      <StudyName>CDISC-Sample</StudyName>
      <StudyDescription>CDISC-Sample Data Definition</StudyDescription>
      <ProtocolName>CDISC-Sample</ProtocolName>
    </GlobalVariables>
    <MetaDataVersion OID="MDV.CDISC01.ADaMIG.1.0.ADaM.2.1" 
      Name="Study CDISC-Sample, Data Definitions" 
      Description="Study CDISC-Sample, Data Definitions" 
      def:DefineVersion="2.0.0"
      def:StandardName="ADaM-IG" 
      def:StandardVersion="1.0">

      <!-- ******************** -->
      <!-- Supporting Documents -->
      <!-- ******************** -->

      <def:SupplementalDoc>
        <def:DocumentRef leafID="LF.ADRG"/>
      </def:SupplementalDoc>

      <!-- ****************************************************************************************************************** -->
      <!-- Value List Definitions Section.                                                                                    -->
      <!-- (Note that any definitions not provided at a Value Level will be inherited from the parent item definition)        -->
      <!-- ****************************************************************************************************************** -->
      <def:ValueListDef OID="VL.ADQSADAS.AVAL">
        <ItemRef ItemOID="IT.ADQSADAS.AVAL.ACITM01-ACITM14" Mandatory="No" MethodOID="MT.ADQSADAS.AVAL.ACITM01-ACITM14">
          <def:WhereClauseRef WhereClauseOID="WC.ADQSADAS.AVAL.ACITM01-ACITM14"/>
        </ItemRef>
        <ItemRef ItemOID="IT.ADQSADAS.AVAL.ACTOT" Mandatory="No" MethodOID="MT.ADQSADAS.AVAL.ACTOT">
          <def:WhereClauseRef WhereClauseOID="WC.ADQSADAS.AVAL.ACTOT"/>
        </ItemRef>
      </def:ValueListDef>
      <def:ValueListDef OID="VL.ADQSADAS.DTYPE">
        <ItemRef ItemOID="IT.ADQSADAS.DTYPE.ACITM01-ACITM14" Mandatory="No">
          <def:WhereClauseRef WhereClauseOID="WC.ADQSADAS.DTYPE.ACITM01-ACITM14"/>
        </ItemRef>
        <ItemRef ItemOID="IT.ADQSADAS.DTYPE.ACTOT" Mandatory="No">
          <def:WhereClauseRef WhereClauseOID="WC.ADQSADAS.DTYPE.ACTOT"/>
        </ItemRef>
      </def:ValueListDef>
      <def:ValueListDef OID="VL.ADQSADAS.QSSEQ">
        <ItemRef ItemOID="IT.ADQSADAS.QSSEQ.ACITM01-ACITM14" Mandatory="No">
          <def:WhereClauseRef WhereClauseOID="WC.ADQSADAS.QSSEQ.ACITM01-ACITM14"/>
        </ItemRef>
        <ItemRef ItemOID="IT.ADQSADAS.QSSEQ.ACTOT" Mandatory="No">
          <def:WhereClauseRef WhereClauseOID="WC.ADQSADAS.QSSEQ.ACTOT"/>
        </ItemRef>
      </def:ValueListDef>

      <!-- ************************************************************************** -->
      <!-- WhereClause Definitions Section (Used/Referenced in Value List Definitions) -->
      <!-- ************************************************************************** -->
      <def:WhereClauseDef OID="WC.ADQSADAS.AVAL.ACITM01-ACITM14">
        <RangeCheck Comparator="IN" SoftHard="Soft" def:ItemOID="IT.ADQSADAS.PARAMCD">
          <CheckValue>ACITM01</CheckValue>
          <CheckValue>ACITM02</CheckValue>
          <CheckValue>ACITM03</CheckValue>
          <CheckValue>ACITM04</CheckValue>
          <CheckValue>ACITM05</CheckValue>
          <CheckValue>ACITM06</CheckValue>
          <CheckValue>ACITM07</CheckValue>
          <CheckValue>ACITM08</CheckValue>
          <CheckValue>ACITM09</CheckValue>
          <CheckValue>ACITM10</CheckValue>
          <CheckValue>ACITM11</CheckValue>
          <CheckValue>ACITM12</CheckValue>
          <CheckValue>ACITM13</CheckValue>
          <CheckValue>ACITM14</CheckValue>
        </RangeCheck>
      </def:WhereClauseDef>
      <def:WhereClauseDef OID="WC.ADQSADAS.AVAL.ACTOT">
        <RangeCheck Comparator="EQ" SoftHard="Soft" def:ItemOID="IT.ADQSADAS.PARAMCD">
          <CheckValue>ACTOT</CheckValue>
        </RangeCheck>
      </def:WhereClauseDef>
      <def:WhereClauseDef OID="WC.ADQSADAS.DTYPE.ACITM01-ACITM14">
        <RangeCheck Comparator="NOTIN" SoftHard="Soft" def:ItemOID="IT.ADQSADAS.PARAMCD">
          <CheckValue>ACTOT</CheckValue>
        </RangeCheck>
      </def:WhereClauseDef>
      <def:WhereClauseDef OID="WC.ADQSADAS.DTYPE.ACTOT">
        <RangeCheck Comparator="EQ" SoftHard="Soft" def:ItemOID="IT.ADQSADAS.PARAMCD">
          <CheckValue>ACTOT</CheckValue>
        </RangeCheck>
      </def:WhereClauseDef>
      <def:WhereClauseDef OID="WC.ADQSADAS.QSSEQ.ACITM01-ACITM14">
        <RangeCheck Comparator="NOTIN" SoftHard="Soft" def:ItemOID="IT.ADQSADAS.PARAMCD">
          <CheckValue>ACTOT</CheckValue>
        </RangeCheck>
      </def:WhereClauseDef>
      <def:WhereClauseDef OID="WC.ADQSADAS.QSSEQ.ACTOT">
        <RangeCheck Comparator="EQ" SoftHard="Soft" def:ItemOID="IT.ADQSADAS.PARAMCD">
          <CheckValue>ACTOT</CheckValue>
        </RangeCheck>
      </def:WhereClauseDef>

      <!-- ************************************************************************************ -->
      <!-- ItemGroupDef Definitions Section (Datasets and and first set of variable properties) -->
      <!-- ************************************************************************************ -->
      <!-- ItemGroup Definition (ADSL) -->
      <ItemGroupDef OID="IG.ADSL" Name="ADSL" SASDatasetName="ADSL" Repeating="No" IsReferenceData="No" Purpose="Analysis" def:Structure="one record per subject"
        def:Class="SUBJECT LEVEL ANALYSIS DATASET" def:CommentOID="COM.ADSL" def:ArchiveLocationID="LF.ADSL">
        <Description>
          <TranslatedText xml:lang="en">Subject-Level Analysis</TranslatedText>
        </Description>
        <ItemRef ItemOID="IT.ADSL.STUDYID" OrderNumber="1" Mandatory="No"/>
        <ItemRef ItemOID="IT.ADSL.USUBJID" OrderNumber="2" Mandatory="No" KeySequence="1"/>
        <ItemRef ItemOID="IT.ADSL.SUBJID" OrderNumber="3" Mandatory="No"/>
        <ItemRef ItemOID="IT.ADSL.SITEID" OrderNumber="4" Mandatory="No"/>
        <ItemRef ItemOID="IT.ADSL.SITEGR1" OrderNumber="5" Mandatory="No" MethodOID="MT.ADSL.SITEGR1"/>
        <ItemRef ItemOID="IT.ADSL.ARM" OrderNumber="6" Mandatory="No"/>
        <ItemRef ItemOID="IT.ADSL.TRT01P" OrderNumber="7" Mandatory="No"/>
        <ItemRef ItemOID="IT.ADSL.TRT01PN" OrderNumber="8" Mandatory="No"/>
        <ItemRef ItemOID="IT.ADSL.TRT01A" OrderNumber="9" Mandatory="No"/>
        <ItemRef ItemOID="IT.ADSL.TRT01AN" OrderNumber="10" Mandatory="No"/>
        <ItemRef ItemOID="IT.ADSL.TRTSDT" OrderNumber="11" Mandatory="No" MethodOID="MT.ADSL.TRTSDT"/>
        <ItemRef ItemOID="IT.ADSL.TRTEDT" OrderNumber="12" Mandatory="No" MethodOID="MT.ADSL.TRTEDT"/>
        <ItemRef ItemOID="IT.ADSL.TRTDUR" OrderNumber="13" Mandatory="No" MethodOID="MT.ADSL.TRTDUR"/>
        <ItemRef ItemOID="IT.ADSL.AVGDD" OrderNumber="14" Mandatory="No" MethodOID="MT.ADSL.AVGDD"/>
        <ItemRef ItemOID="IT.ADSL.CUMDOSE" OrderNumber="15" Mandatory="No" MethodOID="MT.ADSL.CUMDOSE"/>
        <ItemRef ItemOID="IT.ADSL.AGE" OrderNumber="16" Mandatory="No"/>
        <ItemRef ItemOID="IT.ADSL.AGEGR1" OrderNumber="17" Mandatory="No" MethodOID="MT.ADSL.AGEGR1"/>
        <ItemRef ItemOID="IT.ADSL.AGEGR1N" OrderNumber="18" Mandatory="No"/>
        <ItemRef ItemOID="IT.ADSL.AGEU" OrderNumber="19" Mandatory="No"/>
        <ItemRef ItemOID="IT.ADSL.RACE" OrderNumber="20" Mandatory="No"/>
        <ItemRef ItemOID="IT.ADSL.RACEN" OrderNumber="21" Mandatory="No"/>
        <ItemRef ItemOID="IT.ADSL.SEX" OrderNumber="22" Mandatory="No"/>
        <ItemRef ItemOID="IT.ADSL.ETHNIC" OrderNumber="23" Mandatory="No"/>
        <ItemRef ItemOID="IT.ADSL.SAFFL" OrderNumber="24" Mandatory="No" MethodOID="MT.ADSL.SAFFL"/>
        <ItemRef ItemOID="IT.ADSL.ITTFL" OrderNumber="25" Mandatory="No" MethodOID="MT.ADSL.ITTFL"/>
        <ItemRef ItemOID="IT.ADSL.EFFFL" OrderNumber="26" Mandatory="No" MethodOID="MT.ADSL.EFFFL"/>
        <ItemRef ItemOID="IT.ADSL.COMP8FL" OrderNumber="27" Mandatory="No" MethodOID="MT.ADSL.COMP8FL"/>
        <ItemRef ItemOID="IT.ADSL.COMP16FL" OrderNumber="28" Mandatory="No" MethodOID="MT.ADSL.COMP16FL"/>
        <ItemRef ItemOID="IT.ADSL.COMP24FL" OrderNumber="29" Mandatory="No" MethodOID="MT.ADSL.COMP24FL"/>
        <ItemRef ItemOID="IT.ADSL.DISCONFL" OrderNumber="30" Mandatory="No" MethodOID="MT.ADSL.DISCONFL"/>
        <ItemRef ItemOID="IT.ADSL.DSRAEFL" OrderNumber="31" Mandatory="No" MethodOID="MT.ADSL.DSRAEFL"/>
        <ItemRef ItemOID="IT.ADSL.DTHFL" OrderNumber="32" Mandatory="No"/>
        <ItemRef ItemOID="IT.ADSL.BMIBL" OrderNumber="33" Mandatory="No" MethodOID="MT.ADSL.BMIBL"/>
        <ItemRef ItemOID="IT.ADSL.BMIBLGR1" OrderNumber="34" Mandatory="No" MethodOID="MT.ADSL.BMIBLGR1"/>
        <ItemRef ItemOID="IT.ADSL.HEIGHTBL" OrderNumber="35" Mandatory="No" MethodOID="MT.ADSL.HEIGHTBL"/>
        <ItemRef ItemOID="IT.ADSL.WEIGHTBL" OrderNumber="36" Mandatory="No" MethodOID="MT.ADSL.WEIGHTBL"/>
        <ItemRef ItemOID="IT.ADSL.EDUCLVL" OrderNumber="37" Mandatory="No" MethodOID="MT.ADSL.EDUCLVL"/>
        <ItemRef ItemOID="IT.ADSL.DISONSDT" OrderNumber="38" Mandatory="No" MethodOID="MT.ADSL.DISONSDT"/>
        <ItemRef ItemOID="IT.ADSL.DURDIS" OrderNumber="39" Mandatory="No" MethodOID="MT.ADSL.DURDIS"/>
        <ItemRef ItemOID="IT.ADSL.DURDSGR1" OrderNumber="40" Mandatory="No" MethodOID="MT.ADSL.DURDSGR1"/>
        <ItemRef ItemOID="IT.ADSL.VISIT1DT" OrderNumber="41" Mandatory="No" MethodOID="MT.ADSL.VISIT1DT"/>
        <ItemRef ItemOID="IT.ADSL.RFSTDTC" OrderNumber="42" Mandatory="No"/>
        <ItemRef ItemOID="IT.ADSL.RFENDTC" OrderNumber="43" Mandatory="No"/>
        <ItemRef ItemOID="IT.ADSL.VISNUMEN" OrderNumber="44" Mandatory="No" MethodOID="MT.ADSL.VISNUMEN"/>
        <ItemRef ItemOID="IT.ADSL.RFENDT" OrderNumber="45" Mandatory="No" MethodOID="MT.ADSL.RFENDT"/>
        <ItemRef ItemOID="IT.ADSL.DCDECOD" OrderNumber="46" Mandatory="No" MethodOID="MT.ADSL.DCDECOD"/>
        <ItemRef ItemOID="IT.ADSL.DCREASCD" OrderNumber="47" Mandatory="No" MethodOID="MT.ADSL.DCREASCD"/>
        <ItemRef ItemOID="IT.ADSL.MMSETOT" OrderNumber="48" Mandatory="No" MethodOID="MT.ADSL.MMSETOT"/>
        <def:leaf ID="LF.ADSL" xlink:href="adsl.xpt">
          <def:title>adsl.xpt </def:title>
        </def:leaf>
      </ItemGroupDef>
      <!-- ItemGroup Definition (ADQSADAS) -->
      <ItemGroupDef OID="IG.ADQSADAS" Name="ADQSADAS" SASDatasetName="ADQSADAS" Repeating="Yes" IsReferenceData="No" Purpose="Analysis"
        def:Structure="One record per subject per parameter per analysis visit per analysis date" def:Class="BASIC DATA STRUCTURE" def:CommentOID="COM.ADQSADAS"
        def:ArchiveLocationID="LF.ADQSADAS">
        <Description>
          <TranslatedText xml:lang="en">ADAS-Cog Analysis</TranslatedText>
        </Description>
        <ItemRef ItemOID="IT.ADQSADAS.STUDYID" OrderNumber="1" Mandatory="No"/>
        <ItemRef ItemOID="IT.ADQSADAS.SITEID" OrderNumber="2" Mandatory="No"/>
        <ItemRef ItemOID="IT.ADQSADAS.SITEGR1" OrderNumber="3" Mandatory="No"/>
        <ItemRef ItemOID="IT.ADQSADAS.USUBJID" OrderNumber="4" Mandatory="No" KeySequence="1"/>
        <ItemRef ItemOID="IT.ADQSADAS.TRTSDT" OrderNumber="5" Mandatory="No"/>
        <ItemRef ItemOID="IT.ADQSADAS.TRTEDT" OrderNumber="6" Mandatory="No"/>
        <ItemRef ItemOID="IT.ADQSADAS.TRTP" OrderNumber="7" Mandatory="No"/>
        <ItemRef ItemOID="IT.ADQSADAS.TRTPN" OrderNumber="8" Mandatory="No"/>
        <ItemRef ItemOID="IT.ADQSADAS.AGE" OrderNumber="9" Mandatory="No"/>
        <ItemRef ItemOID="IT.ADQSADAS.AGEGR1" OrderNumber="10" Mandatory="No"/>
        <ItemRef ItemOID="IT.ADQSADAS.AGEGR1N" OrderNumber="11" Mandatory="No"/>
        <ItemRef ItemOID="IT.ADQSADAS.RACE" OrderNumber="12" Mandatory="No"/>
        <ItemRef ItemOID="IT.ADQSADAS.RACEN" OrderNumber="13" Mandatory="No"/>
        <ItemRef ItemOID="IT.ADQSADAS.SEX" OrderNumber="14" Mandatory="No"/>
        <ItemRef ItemOID="IT.ADQSADAS.ITTFL" OrderNumber="15" Mandatory="No"/>
        <ItemRef ItemOID="IT.ADQSADAS.EFFFL" OrderNumber="16" Mandatory="No"/>
        <ItemRef ItemOID="IT.ADQSADAS.COMP24FL" OrderNumber="17" Mandatory="No"/>
        <ItemRef ItemOID="IT.ADQSADAS.AVISIT" OrderNumber="18" Mandatory="No" KeySequence="3" MethodOID="MT.ADQSADAS.AVISIT"/>
        <ItemRef ItemOID="IT.ADQSADAS.AVISITN" OrderNumber="19" Mandatory="No"/>
        <ItemRef ItemOID="IT.ADQSADAS.VISIT" OrderNumber="20" Mandatory="No"/>
        <ItemRef ItemOID="IT.ADQSADAS.VISITNUM" OrderNumber="21" Mandatory="No"/>
        <ItemRef ItemOID="IT.ADQSADAS.ADY" OrderNumber="22" Mandatory="No" MethodOID="MT.ADQSADAS.ADY"/>
        <ItemRef ItemOID="IT.ADQSADAS.ADT" OrderNumber="23" Mandatory="No" KeySequence="4" MethodOID="MT.ADQSADAS.ADT"/>
        <ItemRef ItemOID="IT.ADQSADAS.PARAM" OrderNumber="24" Mandatory="No"/>
        <ItemRef ItemOID="IT.ADQSADAS.PARAMCD" OrderNumber="25" Mandatory="No" KeySequence="2"/>
        <ItemRef ItemOID="IT.ADQSADAS.PARAMN" OrderNumber="26" Mandatory="No"/>
        <ItemRef ItemOID="IT.ADQSADAS.AVAL" OrderNumber="27" Mandatory="No" MethodOID="MT.ADQSADAS.AVAL"/>
        <ItemRef ItemOID="IT.ADQSADAS.BASE" OrderNumber="28" Mandatory="No" MethodOID="MT.ADQSADAS.BASE"/>
        <ItemRef ItemOID="IT.ADQSADAS.CHG" OrderNumber="29" Mandatory="No" MethodOID="MT.ADQSADAS.CHG"/>
        <ItemRef ItemOID="IT.ADQSADAS.PCHG" OrderNumber="30" Mandatory="No" MethodOID="MT.ADQSADAS.PCHG"/>
        <ItemRef ItemOID="IT.ADQSADAS.ABLFL" OrderNumber="31" Mandatory="No"/>
        <ItemRef ItemOID="IT.ADQSADAS.ANL01FL" OrderNumber="32" Mandatory="No" MethodOID="MT.ADQSADAS.ANL01FL"/>
        <ItemRef ItemOID="IT.ADQSADAS.DTYPE" OrderNumber="33" Mandatory="No"/>
        <ItemRef ItemOID="IT.ADQSADAS.AWRANGE" OrderNumber="34" Mandatory="No"/>
        <ItemRef ItemOID="IT.ADQSADAS.AWTARGET" OrderNumber="35" Mandatory="No"/>
        <ItemRef ItemOID="IT.ADQSADAS.AWTDIFF" OrderNumber="36" Mandatory="No" MethodOID="MT.ADQSADAS.AWTDIFF"/>
        <ItemRef ItemOID="IT.ADQSADAS.AWLO" OrderNumber="37" Mandatory="No"/>
        <ItemRef ItemOID="IT.ADQSADAS.AWHI" OrderNumber="38" Mandatory="No"/>
        <ItemRef ItemOID="IT.ADQSADAS.AWU" OrderNumber="39" Mandatory="No"/>
        <ItemRef ItemOID="IT.ADQSADAS.QSSEQ" OrderNumber="40" Mandatory="No"/>
        <def:leaf ID="LF.ADQSADAS" xlink:href="adqsadas.xpt">
          <def:title>adqsadas.xpt </def:title>
        </def:leaf>
      </ItemGroupDef>

      <!-- ************************************************************************************* -->
      <!-- ItemDef Definitions Section (Variables and Paramter Value List, remaining properties) -->
      <!-- ************************************************************************************* -->

      <ItemDef OID="IT.ADQSADAS.STUDYID" Name="STUDYID" SASFieldName="STUDYID" DataType="text" Length="12">
        <Description>
          <TranslatedText xml:lang="en">Study Identifier</TranslatedText>
        </Description>
        <def:Origin Type="Predecessor">
          <Description>
            <TranslatedText xml:lang="en">ADSL.STUDYID</TranslatedText>
          </Description>
        </def:Origin>
      </ItemDef>
      <ItemDef OID="IT.ADQSADAS.SITEID" Name="SITEID" SASFieldName="SITEID" DataType="text" Length="3">
        <Description>
          <TranslatedText xml:lang="en">Study Site Identifier</TranslatedText>
        </Description>
        <def:Origin Type="Predecessor">
          <Description>
            <TranslatedText xml:lang="en">ADSL.SITEID</TranslatedText>
          </Description>
        </def:Origin>
      </ItemDef>
      <ItemDef OID="IT.ADQSADAS.SITEGR1" Name="SITEGR1" SASFieldName="SITEGR1" DataType="text" Length="3">
        <Description>
          <TranslatedText xml:lang="en">Pooled Site Group 1</TranslatedText>
        </Description>
        <def:Origin Type="Predecessor">
          <Description>
            <TranslatedText xml:lang="en">ADSL.SITEGR1</TranslatedText>
          </Description>
        </def:Origin>
      </ItemDef>
      <ItemDef OID="IT.ADQSADAS.USUBJID" Name="USUBJID" SASFieldName="USUBJID" DataType="text" Length="11">
        <Description>
          <TranslatedText xml:lang="en">Unique Subject Identifier</TranslatedText>
        </Description>
        <def:Origin Type="Predecessor">
          <Description>
            <TranslatedText xml:lang="en">ADSL.USUBJID</TranslatedText>
          </Description>
        </def:Origin>
      </ItemDef>
      <ItemDef OID="IT.ADQSADAS.TRTSDT" Name="TRTSDT" SASFieldName="TRTSDT" DataType="integer" Length="8" def:DisplayFormat="date9.">
        <Description>
          <TranslatedText xml:lang="en">Date of First Exposure to Treatment</TranslatedText>
        </Description>
        <def:Origin Type="Predecessor">
          <Description>
            <TranslatedText xml:lang="en">ADSL.TRTSDT</TranslatedText>
          </Description>
        </def:Origin>
      </ItemDef>
      <ItemDef OID="IT.ADQSADAS.TRTEDT" Name="TRTEDT" SASFieldName="TRTEDT" DataType="integer" Length="8" def:DisplayFormat="date9.">
        <Description>
          <TranslatedText xml:lang="en">Date of Last Exposure to Treatment</TranslatedText>
        </Description>
        <def:Origin Type="Predecessor">
          <Description>
            <TranslatedText xml:lang="en">ADSL.TRTEDT</TranslatedText>
          </Description>
        </def:Origin>
      </ItemDef>
      <ItemDef OID="IT.ADQSADAS.TRTP" Name="TRTP" SASFieldName="TRTP" DataType="text" Length="20">
        <Description>
          <TranslatedText xml:lang="en">Planned Treatment</TranslatedText>
        </Description>
        <CodeListRef CodeListOID="CL.ARM"/>
        <def:Origin Type="Predecessor">
          <Description>
            <TranslatedText xml:lang="en">ADSL.TRT01P</TranslatedText>
          </Description>
        </def:Origin>
      </ItemDef>
      <ItemDef OID="IT.ADQSADAS.TRTPN" Name="TRTPN" SASFieldName="TRTPN" DataType="integer" Length="8">
        <Description>
          <TranslatedText xml:lang="en">Planned Treatment (N)</TranslatedText>
        </Description>
        <CodeListRef CodeListOID="CL.ARMN"/>
        <def:Origin Type="Predecessor">
          <Description>
            <TranslatedText xml:lang="en">ADSL.TRT01PN</TranslatedText>
          </Description>
        </def:Origin>
      </ItemDef>
      <ItemDef OID="IT.ADQSADAS.AGE" Name="AGE" SASFieldName="AGE" DataType="integer" Length="8">
        <Description>
          <TranslatedText xml:lang="en">Age</TranslatedText>
        </Description>
        <def:Origin Type="Predecessor">
          <Description>
            <TranslatedText xml:lang="en">ADSL.AGE</TranslatedText>
          </Description>
        </def:Origin>
      </ItemDef>
      <ItemDef OID="IT.ADQSADAS.AGEGR1" Name="AGEGR1" SASFieldName="AGEGR1" DataType="text" Length="5">
        <Description>
          <TranslatedText xml:lang="en">Pooled Age Group 1</TranslatedText>
        </Description>
        <CodeListRef CodeListOID="CL.AGEGR1"/>
        <def:Origin Type="Predecessor">
          <Description>
            <TranslatedText xml:lang="en">ADSL.AGEGR1</TranslatedText>
          </Description>
        </def:Origin>
      </ItemDef>
      <ItemDef OID="IT.ADQSADAS.AGEGR1N" Name="AGEGR1N" SASFieldName="AGEGR1N" DataType="integer" Length="8">
        <Description>
          <TranslatedText xml:lang="en">Pooled Age Group 1 (N)</TranslatedText>
        </Description>
        <CodeListRef CodeListOID="CL.AGEGR1N"/>
        <def:Origin Type="Predecessor">
          <Description>
            <TranslatedText xml:lang="en">ADSL.AGEGR1N</TranslatedText>
          </Description>
        </def:Origin>
      </ItemDef>
      <ItemDef OID="IT.ADQSADAS.RACE" Name="RACE" SASFieldName="RACE" DataType="text" Length="32">
        <Description>
          <TranslatedText xml:lang="en">Race</TranslatedText>
        </Description>
        <CodeListRef CodeListOID="CL.RACE"/>
        <def:Origin Type="Predecessor">
          <Description>
            <TranslatedText xml:lang="en">ADSL.RACE</TranslatedText>
          </Description>
        </def:Origin>
      </ItemDef>
      <ItemDef OID="IT.ADQSADAS.RACEN" Name="RACEN" SASFieldName="RACEN" DataType="integer" Length="8">
        <Description>
          <TranslatedText xml:lang="en">Race (N)</TranslatedText>
        </Description>
        <CodeListRef CodeListOID="CL.RACEN"/>
        <def:Origin Type="Predecessor">
          <Description>
            <TranslatedText xml:lang="en">ADSL.RACEN</TranslatedText>
          </Description>
        </def:Origin>
      </ItemDef>
      <ItemDef OID="IT.ADQSADAS.SEX" Name="SEX" SASFieldName="SEX" DataType="text" Length="1">
        <Description>
          <TranslatedText xml:lang="en">Sex</TranslatedText>
        </Description>
        <CodeListRef CodeListOID="CL.SEX"/>
        <def:Origin Type="Predecessor">
          <Description>
            <TranslatedText xml:lang="en">ADSL.SEX</TranslatedText>
          </Description>
        </def:Origin>
      </ItemDef>
      <ItemDef OID="IT.ADQSADAS.ITTFL" Name="ITTFL" SASFieldName="ITTFL" DataType="text" Length="1">
        <Description>
          <TranslatedText xml:lang="en">Intent-to-Treat Population Flag</TranslatedText>
        </Description>
        <CodeListRef CodeListOID="CL.YN"/>
        <def:Origin Type="Predecessor">
          <Description>
            <TranslatedText xml:lang="en">ADSL.ITTFL</TranslatedText>
          </Description>
        </def:Origin>
      </ItemDef>
      <ItemDef OID="IT.ADQSADAS.EFFFL" Name="EFFFL" SASFieldName="EFFFL" DataType="text" Length="1">
        <Description>
          <TranslatedText xml:lang="en">Efficacy Population Flag</TranslatedText>
        </Description>
        <CodeListRef CodeListOID="CL.YN"/>
        <def:Origin Type="Predecessor">
          <Description>
            <TranslatedText xml:lang="en">ADSL.FASFL</TranslatedText>
          </Description>
        </def:Origin>
      </ItemDef>
      <ItemDef OID="IT.ADQSADAS.COMP24FL" Name="COMP24FL" SASFieldName="COMP24FL" DataType="text" Length="1">
        <Description>
          <TranslatedText xml:lang="en">Completers of Week 24 Population Flag</TranslatedText>
        </Description>
        <CodeListRef CodeListOID="CL.YN"/>
        <def:Origin Type="Predecessor">
          <Description>
            <TranslatedText xml:lang="en">ADSL.COMP24FL</TranslatedText>
          </Description>
        </def:Origin>
      </ItemDef>
      <ItemDef OID="IT.ADQSADAS.AVISIT" Name="AVISIT" SASFieldName="AVISIT" DataType="text" Length="16">
        <Description>
          <TranslatedText xml:lang="en">Analysis Visit</TranslatedText>
        </Description>
        <CodeListRef CodeListOID="CL.AVISIT"/>
        <def:Origin Type="Derived"/>
      </ItemDef>
      <ItemDef OID="IT.ADQSADAS.AVISITN" Name="AVISITN" SASFieldName="AVISITN" DataType="integer" Length="8" def:CommentOID="COM.ADQSADAS.AVISITN">
        <Description>
          <TranslatedText xml:lang="en">Analysis Visit (N)</TranslatedText>
        </Description>
        <CodeListRef CodeListOID="CL.AVISITN"/>
        <def:Origin Type="Assigned"/>
      </ItemDef>
      <ItemDef OID="IT.ADQSADAS.VISIT" Name="VISIT" SASFieldName="VISIT" DataType="text" Length="19">
        <Description>
          <TranslatedText xml:lang="en">Visit Name</TranslatedText>
        </Description>
        <CodeListRef CodeListOID="CL.VISIT"/>
        <def:Origin Type="Predecessor">
          <Description>
            <TranslatedText xml:lang="en">QS.VISIT</TranslatedText>
          </Description>
        </def:Origin>
      </ItemDef>
      <ItemDef OID="IT.ADQSADAS.VISITNUM" Name="VISITNUM" SASFieldName="VISITNUM" DataType="float" SignificantDigits="1" Length="8">
        <Description>
          <TranslatedText xml:lang="en">Visit Number</TranslatedText>
        </Description>
        <CodeListRef CodeListOID="CL.VISITNUM"/>
        <def:Origin Type="Predecessor">
          <Description>
            <TranslatedText xml:lang="en">QS.VISITNUM</TranslatedText>
          </Description>
        </def:Origin>
      </ItemDef>
      <ItemDef OID="IT.ADQSADAS.ADY" Name="ADY" SASFieldName="ADY" DataType="integer" Length="8">
        <Description>
          <TranslatedText xml:lang="en">Analysis Relative Day</TranslatedText>
        </Description>
        <def:Origin Type="Derived"/>
      </ItemDef>
      <ItemDef OID="IT.ADQSADAS.ADT" Name="ADT" SASFieldName="ADT" DataType="integer" Length="8">
        <Description>
          <TranslatedText xml:lang="en">Analysis Date</TranslatedText>
        </Description>
        <def:Origin Type="Derived"/>
      </ItemDef>
      <ItemDef OID="IT.ADQSADAS.PARAM" Name="PARAM" SASFieldName="PARAM" DataType="text" Length="100">
        <Description>
          <TranslatedText xml:lang="en">Parameter</TranslatedText>
        </Description>
        <CodeListRef CodeListOID="CL.PARAM_ADQSADAS"/>
        <def:Origin Type="Assigned"/>
      </ItemDef>
      <ItemDef OID="IT.ADQSADAS.PARAMCD" Name="PARAMCD" SASFieldName="PARAMCD" DataType="text" Length="8">
        <Description>
          <TranslatedText xml:lang="en">Parameter Code</TranslatedText>
        </Description>
        <CodeListRef CodeListOID="CL.PARAMCD_ADQSADAS"/>
        <def:Origin Type="Assigned"/>
      </ItemDef>
      <ItemDef OID="IT.ADQSADAS.PARAMN" Name="PARAMN" SASFieldName="PARAMN" DataType="integer" Length="8" def:CommentOID="COM.ADQSADAS.PARAMN">
        <Description>
          <TranslatedText xml:lang="en">Parameter (N)</TranslatedText>
        </Description>
        <CodeListRef CodeListOID="CL.PARAMN_ADQSADAS"/>
        <def:Origin Type="Assigned"/>
      </ItemDef>
      <ItemDef OID="IT.ADQSADAS.AVAL" Name="AVAL" SASFieldName="AVAL" DataType="integer" Length="8">
        <Description>
          <TranslatedText xml:lang="en">Analysis Value</TranslatedText>
        </Description>
        <def:ValueListRef ValueListOID="VL.ADQSADAS.AVAL"/>
      </ItemDef>
      <ItemDef OID="IT.ADQSADAS.BASE" Name="BASE" SASFieldName="BASE" DataType="integer" Length="8">
        <Description>
          <TranslatedText xml:lang="en">Baseline Value</TranslatedText>
        </Description>
        <def:Origin Type="Derived"/>
      </ItemDef>
      <ItemDef OID="IT.ADQSADAS.CHG" Name="CHG" SASFieldName="CHG" DataType="integer" Length="8">
        <Description>
          <TranslatedText xml:lang="en">Change from Baseline</TranslatedText>
        </Description>
        <def:Origin Type="Derived"/>
      </ItemDef>
      <ItemDef OID="IT.ADQSADAS.PCHG" Name="PCHG" SASFieldName="PCHG" DataType="integer" Length="8">
        <Description>
          <TranslatedText xml:lang="en">Percent Change from Baseline</TranslatedText>
        </Description>
        <def:Origin Type="Derived"/>
      </ItemDef>
      <ItemDef OID="IT.ADQSADAS.ABLFL" Name="ABLFL" SASFieldName="ABLFL" DataType="text" Length="1">
        <Description>
          <TranslatedText xml:lang="en">ABLFL</TranslatedText>
        </Description>
        <CodeListRef CodeListOID="CL.Y_BLANK"/>
        <def:Origin Type="Predecessor">
          <Description>
            <TranslatedText xml:lang="en">QS.QSBLFL</TranslatedText>
          </Description>
        </def:Origin>
      </ItemDef>
      <ItemDef OID="IT.ADQSADAS.ANL01FL" Name="ANL01FL" SASFieldName="ANL01FL" DataType="text" Length="1">
        <Description>
          <TranslatedText xml:lang="en">Analysis Record Flag 01</TranslatedText>
        </Description>
        <CodeListRef CodeListOID="CL.Y_BLANK"/>
        <def:Origin Type="Derived"/>
      </ItemDef>
      <ItemDef OID="IT.ADQSADAS.DTYPE" Name="DTYPE" SASFieldName="DTYPE" DataType="text" Length="7">
        <Description>
          <TranslatedText xml:lang="en">Derivation Type</TranslatedText>
        </Description>
        <CodeListRef CodeListOID="CL.DTYPE"/>
        <def:ValueListRef ValueListOID="VL.ADQSADAS.DTYPE"/>
      </ItemDef>
      <ItemDef OID="IT.ADQSADAS.AWRANGE" Name="AWRANGE" SASFieldName="AWRANGE" DataType="text" Length="9" def:CommentOID="COM.ADQSADAS.AWRANGE">
        <Description>
          <TranslatedText xml:lang="en">Analysis Window Valid Relative Range</TranslatedText>
        </Description>
        <def:Origin Type="Assigned"/>
      </ItemDef>
      <ItemDef OID="IT.ADQSADAS.AWTARGET" Name="AWTARGET" SASFieldName="AWTARGET" DataType="integer" Length="8" def:CommentOID="COM.ADQSADAS.AWTARGET">
        <Description>
          <TranslatedText xml:lang="en">Analysis Window Target</TranslatedText>
        </Description>
        <def:Origin Type="Assigned"/>
      </ItemDef>
      <ItemDef OID="IT.ADQSADAS.AWTDIFF" Name="AWTDIFF" SASFieldName="AWTDIFF" DataType="integer" Length="8">
        <Description>
          <TranslatedText xml:lang="en">Analysis Window Diff from Target</TranslatedText>
        </Description>
        <def:Origin Type="Derived"/>
      </ItemDef>
      <ItemDef OID="IT.ADQSADAS.AWLO" Name="AWLO" SASFieldName="AWLO" DataType="integer" Length="8" def:CommentOID="COM.ADQSADAS.AWLO">
        <Description>
          <TranslatedText xml:lang="en">Analysis Window Beginning Timepoint</TranslatedText>
        </Description>
        <def:Origin Type="Assigned"/>
      </ItemDef>
      <ItemDef OID="IT.ADQSADAS.AWHI" Name="AWHI" SASFieldName="AWHI" DataType="integer" Length="8" def:CommentOID="COM.ADQSADAS.AWHI">
        <Description>
          <TranslatedText xml:lang="en">Analysis Window Ending Timepoint</TranslatedText>
        </Description>
        <def:Origin Type="Assigned"/>
      </ItemDef>
      <ItemDef OID="IT.ADQSADAS.AWU" Name="AWU" SASFieldName="AWU" DataType="text" Length="4" def:CommentOID="COM.ADQSADAS.AWU">
        <Description>
          <TranslatedText xml:lang="en">Analysis Window Unit</TranslatedText>
        </Description>
        <CodeListRef CodeListOID="CL.AWU"/>
        <def:Origin Type="Assigned"/>
      </ItemDef>
      <ItemDef OID="IT.ADQSADAS.QSSEQ" Name="QSSEQ" SASFieldName="QSSEQ" DataType="integer" Length="8">
        <Description>
          <TranslatedText xml:lang="en">Sequence Number</TranslatedText>
        </Description>
        <def:ValueListRef ValueListOID="VL.ADQSADAS.QSSEQ"/>
      </ItemDef>
      <ItemDef OID="IT.ADSL.STUDYID" Name="STUDYID" SASFieldName="STUDYID" DataType="text" Length="12">
        <Description>
          <TranslatedText xml:lang="en">Study Identifier</TranslatedText>
        </Description>
        <def:Origin Type="Predecessor">
          <Description>
            <TranslatedText xml:lang="en">DM.STUDYID</TranslatedText>
          </Description>
        </def:Origin>
      </ItemDef>
      <ItemDef OID="IT.ADSL.USUBJID" Name="USUBJID" SASFieldName="USUBJID" DataType="text" Length="11">
        <Description>
          <TranslatedText xml:lang="en">Unique Subject Identifier</TranslatedText>
        </Description>
        <def:Origin Type="Predecessor">
          <Description>
            <TranslatedText xml:lang="en">DM.USUBJID</TranslatedText>
          </Description>
        </def:Origin>
      </ItemDef>
      <ItemDef OID="IT.ADSL.SUBJID" Name="SUBJID" SASFieldName="SUBJID" DataType="text" Length="4">
        <Description>
          <TranslatedText xml:lang="en">Subject Identifier for the Study</TranslatedText>
        </Description>
        <def:Origin Type="Predecessor">
          <Description>
            <TranslatedText xml:lang="en">DM.SUBJID</TranslatedText>
          </Description>
        </def:Origin>
      </ItemDef>
      <ItemDef OID="IT.ADSL.SITEID" Name="SITEID" SASFieldName="SITEID" DataType="text" Length="3">
        <Description>
          <TranslatedText xml:lang="en">Study Site Identifier</TranslatedText>
        </Description>
        <def:Origin Type="Predecessor">
          <Description>
            <TranslatedText xml:lang="en">DM.SITEID</TranslatedText>
          </Description>
        </def:Origin>
      </ItemDef>
      <ItemDef OID="IT.ADSL.SITEGR1" Name="SITEGR1" SASFieldName="SITEGR1" DataType="text" Length="3">
        <Description>
          <TranslatedText xml:lang="en">Pooled Site Group 1</TranslatedText>
        </Description>
        <def:Origin Type="Derived"/>
      </ItemDef>
      <ItemDef OID="IT.ADSL.ARM" Name="ARM" SASFieldName="ARM" DataType="text" Length="20">
        <Description>
          <TranslatedText xml:lang="en">Description of Planned Arm</TranslatedText>
        </Description>
        <CodeListRef CodeListOID="CL.ARM"/>
        <def:Origin Type="Predecessor">
          <Description>
            <TranslatedText xml:lang="en">DM.ARM</TranslatedText>
          </Description>
        </def:Origin>
      </ItemDef>
      <ItemDef OID="IT.ADSL.TRT01P" Name="TRT01P" SASFieldName="TRT01P" DataType="text" Length="20">
        <Description>
          <TranslatedText xml:lang="en">Planned Treatment for Period 01</TranslatedText>
        </Description>
        <CodeListRef CodeListOID="CL.ARM"/>
        <def:Origin Type="Predecessor">
          <Description>
            <TranslatedText xml:lang="en">DM.ARM</TranslatedText>
          </Description>
        </def:Origin>
      </ItemDef>
      <ItemDef OID="IT.ADSL.TRT01PN" Name="TRT01PN" SASFieldName="TRT01PN" DataType="integer" Length="8" def:CommentOID="COM.ADSL.TRT01PN">
        <Description>
          <TranslatedText xml:lang="en">Planned Treatment for Period 01 (N)</TranslatedText>
        </Description>
        <CodeListRef CodeListOID="CL.ARMN"/>
        <def:Origin Type="Assigned"/>
      </ItemDef>
      <ItemDef OID="IT.ADSL.TRT01A" Name="TRT01A" SASFieldName="TRT01A" DataType="text" Length="20" def:CommentOID="COM.ADSL.TRT01A">
        <Description>
          <TranslatedText xml:lang="en">Actual Treatment for Period 01</TranslatedText>
        </Description>
        <CodeListRef CodeListOID="CL.ARM"/>
        <def:Origin Type="Assigned"/>
      </ItemDef>
      <ItemDef OID="IT.ADSL.TRT01AN" Name="TRT01AN" SASFieldName="TRT01AN" DataType="integer" Length="8" def:CommentOID="COM.ADSL.TRT01AN">
        <Description>
          <TranslatedText xml:lang="en">Actual Treatment for Period 01 (N)</TranslatedText>
        </Description>
        <CodeListRef CodeListOID="CL.ARMN"/>
        <def:Origin Type="Assigned"/>
      </ItemDef>
      <ItemDef OID="IT.ADSL.TRTSDT" Name="TRTSDT" SASFieldName="TRTSDT" DataType="integer" Length="8" def:DisplayFormat="date9.">
        <Description>
          <TranslatedText xml:lang="en">Date of First Exposure to Treatment</TranslatedText>
        </Description>
        <def:Origin Type="Derived"/>
      </ItemDef>
      <ItemDef OID="IT.ADSL.TRTEDT" Name="TRTEDT" SASFieldName="TRTEDT" DataType="integer" Length="8" def:DisplayFormat="date9.">
        <Description>
          <TranslatedText xml:lang="en">Date of Last Exposure to Treatment</TranslatedText>
        </Description>
        <def:Origin Type="Derived"/>
      </ItemDef>
      <ItemDef OID="IT.ADSL.TRTDUR" Name="TRTDUR" SASFieldName="TRTDUR" DataType="integer" Length="8">
        <Description>
          <TranslatedText xml:lang="en">Duration of Treatment (days)</TranslatedText>
        </Description>
        <def:Origin Type="Derived"/>
      </ItemDef>
      <ItemDef OID="IT.ADSL.AVGDD" Name="AVGDD" SASFieldName="AVGDD" DataType="float" SignificantDigits="1" Length="8">
        <Description>
          <TranslatedText xml:lang="en">Avg Daily Dose (as planned)</TranslatedText>
        </Description>
        <def:Origin Type="Derived"/>
      </ItemDef>
      <ItemDef OID="IT.ADSL.CUMDOSE" Name="CUMDOSE" SASFieldName="CUMDOSE" DataType="float" SignificantDigits="1" Length="8">
        <Description>
          <TranslatedText xml:lang="en">Cumulative Dose (as planned)</TranslatedText>
        </Description>
        <def:Origin Type="Derived"/>
      </ItemDef>
      <ItemDef OID="IT.ADSL.AGE" Name="AGE" SASFieldName="AGE" DataType="integer" Length="8">
        <Description>
          <TranslatedText xml:lang="en">Age</TranslatedText>
        </Description>
        <def:Origin Type="Predecessor">
          <Description>
            <TranslatedText xml:lang="en">DM.AGE</TranslatedText>
          </Description>
        </def:Origin>
      </ItemDef>
      <ItemDef OID="IT.ADSL.AGEGR1" Name="AGEGR1" SASFieldName="AGEGR1" DataType="text" Length="5">
        <Description>
          <TranslatedText xml:lang="en">Pooled Age Group 1</TranslatedText>
        </Description>
        <CodeListRef CodeListOID="CL.AGEGR1"/>
        <def:Origin Type="Derived"/>
      </ItemDef>
      <ItemDef OID="IT.ADSL.AGEGR1N" Name="AGEGR1N" SASFieldName="AGEGR1N" DataType="integer" Length="8" def:CommentOID="COM.ADSL.AGEGR1N">
        <Description>
          <TranslatedText xml:lang="en">Pooled Age Group 1 (N)</TranslatedText>
        </Description>
        <CodeListRef CodeListOID="CL.AGEGR1N"/>
        <def:Origin Type="Assigned"/>
      </ItemDef>
      <ItemDef OID="IT.ADSL.AGEU" Name="AGEU" SASFieldName="AGEU" DataType="text" Length="5">
        <Description>
          <TranslatedText xml:lang="en">Age Units</TranslatedText>
        </Description>
        <CodeListRef CodeListOID="CL.AGEU"/>
        <def:Origin Type="Predecessor">
          <Description>
            <TranslatedText xml:lang="en">DM.AGEU</TranslatedText>
          </Description>
        </def:Origin>
      </ItemDef>
      <ItemDef OID="IT.ADSL.RACE" Name="RACE" SASFieldName="RACE" DataType="text" Length="32">
        <Description>
          <TranslatedText xml:lang="en">Race</TranslatedText>
        </Description>
        <CodeListRef CodeListOID="CL.RACE"/>
        <def:Origin Type="Predecessor">
          <Description>
            <TranslatedText xml:lang="en">DM.RACE</TranslatedText>
          </Description>
        </def:Origin>
      </ItemDef>
      <ItemDef OID="IT.ADSL.RACEN" Name="RACEN" SASFieldName="RACEN" DataType="integer" Length="8" def:CommentOID="COM.ADSL.RACEN">
        <Description>
          <TranslatedText xml:lang="en">Race (N)</TranslatedText>
        </Description>
        <CodeListRef CodeListOID="CL.RACEN"/>
        <def:Origin Type="Assigned"/>
      </ItemDef>
      <ItemDef OID="IT.ADSL.SEX" Name="SEX" SASFieldName="SEX" DataType="text" Length="1">
        <Description>
          <TranslatedText xml:lang="en">Sex</TranslatedText>
        </Description>
        <CodeListRef CodeListOID="CL.SEX"/>
        <def:Origin Type="Predecessor">
          <Description>
            <TranslatedText xml:lang="en">DM.SEX</TranslatedText>
          </Description>
        </def:Origin>
      </ItemDef>
      <ItemDef OID="IT.ADSL.ETHNIC" Name="ETHNIC" SASFieldName="ETHNIC" DataType="text" Length="22">
        <Description>
          <TranslatedText xml:lang="en">Ethnicity</TranslatedText>
        </Description>
        <CodeListRef CodeListOID="CL.ETHNIC"/>
        <def:Origin Type="Predecessor">
          <Description>
            <TranslatedText xml:lang="en">DM.ETHNIC</TranslatedText>
          </Description>
        </def:Origin>
      </ItemDef>
      <ItemDef OID="IT.ADSL.SAFFL" Name="SAFFL" SASFieldName="SAFFL" DataType="text" Length="1">
        <Description>
          <TranslatedText xml:lang="en">Safety Population Flag</TranslatedText>
        </Description>
        <CodeListRef CodeListOID="CL.YN"/>
        <def:Origin Type="Derived"/>
      </ItemDef>
      <ItemDef OID="IT.ADSL.ITTFL" Name="ITTFL" SASFieldName="ITTFL" DataType="text" Length="1">
        <Description>
          <TranslatedText xml:lang="en">Intent-To-Treat Population Flag</TranslatedText>
        </Description>
        <CodeListRef CodeListOID="CL.YN"/>
        <def:Origin Type="Derived"/>
      </ItemDef>
      <ItemDef OID="IT.ADSL.EFFFL" Name="EFFFL" SASFieldName="EFFFL" DataType="text" Length="1">
        <Description>
          <TranslatedText xml:lang="en">Efficacy Population Flag</TranslatedText>
        </Description>
        <CodeListRef CodeListOID="CL.YN"/>
        <def:Origin Type="Derived"/>
      </ItemDef>
      <ItemDef OID="IT.ADSL.COMP8FL" Name="COMP8FL" SASFieldName="COMP8FL" DataType="text" Length="1">
        <Description>
          <TranslatedText xml:lang="en">Completers of Week 8 Population Flag</TranslatedText>
        </Description>
        <CodeListRef CodeListOID="CL.YN"/>
        <def:Origin Type="Derived"/>
      </ItemDef>
      <ItemDef OID="IT.ADSL.COMP16FL" Name="COMP16FL" SASFieldName="COMP16FL" DataType="text" Length="1">
        <Description>
          <TranslatedText xml:lang="en">Completers of Week 16 Population Flag</TranslatedText>
        </Description>
        <CodeListRef CodeListOID="CL.YN"/>
        <def:Origin Type="Derived"/>
      </ItemDef>
      <ItemDef OID="IT.ADSL.COMP24FL" Name="COMP24FL" SASFieldName="COMP24FL" DataType="text" Length="1">
        <Description>
          <TranslatedText xml:lang="en">Completers of Week 24 Population Flag</TranslatedText>
        </Description>
        <CodeListRef CodeListOID="CL.YN"/>
        <def:Origin Type="Derived"/>
      </ItemDef>
      <ItemDef OID="IT.ADSL.DISCONFL" Name="DISCONFL" SASFieldName="DISCONFL" DataType="text" Length="1">
        <Description>
          <TranslatedText xml:lang="en">Did the Subject Discontinue the Study?</TranslatedText>
        </Description>
        <CodeListRef CodeListOID="CL.Y_BLANK"/>
        <def:Origin Type="Derived"/>
      </ItemDef>
      <ItemDef OID="IT.ADSL.DSRAEFL" Name="DSRAEFL" SASFieldName="DSRAEFL" DataType="text" Length="1">
        <Description>
          <TranslatedText xml:lang="en">Discontinued due to AE?</TranslatedText>
        </Description>
        <CodeListRef CodeListOID="CL.Y_BLANK"/>
        <def:Origin Type="Derived"/>
      </ItemDef>
      <ItemDef OID="IT.ADSL.DTHFL" Name="DTHFL" SASFieldName="DTHFL" DataType="text" Length="1">
        <Description>
          <TranslatedText xml:lang="en">Subject Died?</TranslatedText>
        </Description>
        <CodeListRef CodeListOID="CL.Y_BLANK"/>
        <def:Origin Type="Predecessor">
          <Description>
            <TranslatedText xml:lang="en">DM.DTHFL</TranslatedText>
          </Description>
        </def:Origin>
      </ItemDef>
      <ItemDef OID="IT.ADSL.BMIBL" Name="BMIBL" SASFieldName="BMIBL" DataType="float" SignificantDigits="1" Length="8">
        <Description>
          <TranslatedText xml:lang="en">Baseline BMI (kg/m^2)</TranslatedText>
        </Description>
        <def:Origin Type="Derived"/>
      </ItemDef>
      <ItemDef OID="IT.ADSL.BMIBLGR1" Name="BMIBLGR1" SASFieldName="BMIBLGR1" DataType="text" Length="6">
        <Description>
          <TranslatedText xml:lang="en">Pooled Baseline BMI Group 1</TranslatedText>
        </Description>
        <CodeListRef CodeListOID="CL.BMICAT"/>
        <def:Origin Type="Derived"/>
      </ItemDef>
      <ItemDef OID="IT.ADSL.HEIGHTBL" Name="HEIGHTBL" SASFieldName="HEIGHTBL" DataType="float" SignificantDigits="1" Length="8">
        <Description>
          <TranslatedText xml:lang="en">Baseline Height (cm)</TranslatedText>
        </Description>
        <def:Origin Type="Derived"/>
      </ItemDef>
      <ItemDef OID="IT.ADSL.WEIGHTBL" Name="WEIGHTBL" SASFieldName="WEIGHTBL" DataType="float" SignificantDigits="1" Length="8">
        <Description>
          <TranslatedText xml:lang="en">Baseline Weight (kg)</TranslatedText>
        </Description>
        <def:Origin Type="Derived"/>
      </ItemDef>
      <ItemDef OID="IT.ADSL.EDUCLVL" Name="EDUCLVL" SASFieldName="EDUCLVL" DataType="integer" Length="8">
        <Description>
          <TranslatedText xml:lang="en">Years of Education</TranslatedText>
        </Description>
        <def:Origin Type="Derived"/>
      </ItemDef>
      <ItemDef OID="IT.ADSL.DISONSDT" Name="DISONSDT" SASFieldName="DISONSDT" DataType="integer" Length="8" def:DisplayFormat="date9.">
        <Description>
          <TranslatedText xml:lang="en">Date of Onset of Disease</TranslatedText>
        </Description>
        <def:Origin Type="Derived"/>
      </ItemDef>
      <ItemDef OID="IT.ADSL.DURDIS" Name="DURDIS" SASFieldName="DURDIS" DataType="float" SignificantDigits="1" Length="8">
        <Description>
          <TranslatedText xml:lang="en">Duration of Disease (Months)</TranslatedText>
        </Description>
        <def:Origin Type="Derived"/>
      </ItemDef>
      <ItemDef OID="IT.ADSL.DURDSGR1" Name="DURDSGR1" SASFieldName="DURDSGR1" DataType="text" Length="4">
        <Description>
          <TranslatedText xml:lang="en">Pooled Disease Duration Group 1</TranslatedText>
        </Description>
        <CodeListRef CodeListOID="CL.DURDISC"/>
        <def:Origin Type="Derived"/>
      </ItemDef>
      <ItemDef OID="IT.ADSL.VISIT1DT" Name="VISIT1DT" SASFieldName="VISIT1DT" DataType="integer" Length="8" def:DisplayFormat="date9.">
        <Description>
          <TranslatedText xml:lang="en">Date of Visit 1</TranslatedText>
        </Description>
        <def:Origin Type="Derived"/>
      </ItemDef>
      <ItemDef OID="IT.ADSL.RFSTDTC" Name="RFSTDTC" SASFieldName="RFSTDTC" DataType="datetime" Length="20">
        <Description>
          <TranslatedText xml:lang="en">Subject Reference Start Date/Time</TranslatedText>
        </Description>
        <def:Origin Type="Predecessor">
          <Description>
            <TranslatedText xml:lang="en">DM.RFSTDTC</TranslatedText>
          </Description>
        </def:Origin>
      </ItemDef>
      <ItemDef OID="IT.ADSL.RFENDTC" Name="RFENDTC" SASFieldName="RFENDTC" DataType="datetime" Length="20">
        <Description>
          <TranslatedText xml:lang="en">Subject Reference End Date/Time</TranslatedText>
        </Description>
        <def:Origin Type="Predecessor">
          <Description>
            <TranslatedText xml:lang="en">DM.RFENDTC</TranslatedText>
          </Description>
        </def:Origin>
      </ItemDef>
      <ItemDef OID="IT.ADSL.VISNUMEN" Name="VISNUMEN" SASFieldName="VISNUMEN" DataType="integer" Length="8">
        <Description>
          <TranslatedText xml:lang="en">End of Trt Visit (Vis 12 or Early Term.)</TranslatedText>
        </Description>
        <def:Origin Type="Derived"/>
      </ItemDef>
      <ItemDef OID="IT.ADSL.RFENDT" Name="RFENDT" SASFieldName="RFENDT" DataType="integer" Length="8">
        <Description>
          <TranslatedText xml:lang="en">Date of Discontinuation/Completion</TranslatedText>
        </Description>
        <def:Origin Type="Derived"/>
      </ItemDef>
      <ItemDef OID="IT.ADSL.DCDECOD" Name="DCDECOD" SASFieldName="DCDECOD" DataType="text" Length="27">
        <Description>
          <TranslatedText xml:lang="en">Standardized Disposition Term</TranslatedText>
        </Description>
        <CodeListRef CodeListOID="CL.DISCCD"/>
        <def:Origin Type="Derived"/>
      </ItemDef>
      <ItemDef OID="IT.ADSL.DCREASCD" Name="DCREASCD" SASFieldName="DCREASCD" DataType="text" Length="18">
        <Description>
          <TranslatedText xml:lang="en">Reason for Discontinuation</TranslatedText>
        </Description>
        <CodeListRef CodeListOID="CL.DISCREAS"/>
        <def:Origin Type="Derived"/>
      </ItemDef>
      <ItemDef OID="IT.ADSL.MMSETOT" Name="MMSETOT" SASFieldName="MMSETOT" DataType="integer" Length="8">
        <Description>
          <TranslatedText xml:lang="en">MMSE Total</TranslatedText>
        </Description>
        <def:Origin Type="Derived"/>
      </ItemDef>
      <ItemDef OID="IT.ADQSADAS.AVAL.ACITM01-ACITM14" Name="AVAL" SASFieldName="AVAL" DataType="integer" Length="8">
        <Description>
          <TranslatedText xml:lang="en">Analysis Value</TranslatedText>
        </Description>
        <def:Origin Type="Derived"/>
      </ItemDef>
      <ItemDef OID="IT.ADQSADAS.AVAL.ACTOT" Name="AVAL" SASFieldName="AVAL" DataType="integer" Length="8">
        <Description>
          <TranslatedText xml:lang="en">Analysis Value</TranslatedText>
        </Description>
        <def:Origin Type="Derived"/>
      </ItemDef>
      <ItemDef OID="IT.ADQSADAS.DTYPE.ACITM01-ACITM14" Name="DTYPE" SASFieldName="DTYPE" DataType="text" Length="10" def:CommentOID="COM.ADQSADAS.DTYPE.ACITM01-ACITM14">
        <Description>
          <TranslatedText xml:lang="en">Derivation Type</TranslatedText>
        </Description>
        <CodeListRef CodeListOID="CL.DTYPE"/>
        <def:Origin Type="Assigned"/>
      </ItemDef>
      <ItemDef OID="IT.ADQSADAS.DTYPE.ACTOT" Name="DTYPE" SASFieldName="DTYPE" DataType="text" Length="10" def:CommentOID="COM.ADQSADAS.DTYPE.ACTOT">
        <Description>
          <TranslatedText xml:lang="en">Derivation Type</TranslatedText>
        </Description>
        <CodeListRef CodeListOID="CL.DTYPE"/>
        <def:Origin Type="Assigned"/>
      </ItemDef>
      <ItemDef OID="IT.ADQSADAS.QSSEQ.ACITM01-ACITM14" Name="QSSEQ" SASFieldName="QSSEQ" DataType="integer" Length="8">
        <Description>
          <TranslatedText xml:lang="en">Sequence Number</TranslatedText>
        </Description>
        <def:Origin Type="Predecessor">
          <Description>
            <TranslatedText xml:lang="en">QS.QSSEQ</TranslatedText>
          </Description>
        </def:Origin>
      </ItemDef>
      <ItemDef OID="IT.ADQSADAS.QSSEQ.ACTOT" Name="QSSEQ" SASFieldName="QSSEQ" DataType="integer" Length="8" def:CommentOID="COM.ADQSADAS.QSSEQ.ACTOT">
        <Description>
          <TranslatedText xml:lang="en">Sequence Number</TranslatedText>
        </Description>
        <def:Origin Type="Assigned"/>
      </ItemDef>

      <!-- ******************************** -->
      <!-- Code List Definitions Section    -->
      <!-- ******************************** -->

      <CodeList OID="CL.AGEGR1" Name="AGEGR1" DataType="text">
        <EnumeratedItem CodedValue="&lt;65" Rank="1"/>
        <EnumeratedItem CodedValue="65-80" Rank="2"/>
        <EnumeratedItem CodedValue="&gt;80" Rank="3"/>
      </CodeList>
      <CodeList OID="CL.AGEGR1N" Name="AGEGR1N" DataType="integer">
        <CodeListItem CodedValue="1" OrderNumber="1">
          <Decode>
            <TranslatedText xml:lang="en">&lt;65</TranslatedText>
          </Decode>
        </CodeListItem>
        <CodeListItem CodedValue="2" OrderNumber="2">
          <Decode>
            <TranslatedText xml:lang="en">65-80</TranslatedText>
          </Decode>
        </CodeListItem>
        <CodeListItem CodedValue="3" OrderNumber="3">
          <Decode>
            <TranslatedText xml:lang="en">&gt;80</TranslatedText>
          </Decode>
        </CodeListItem>
      </CodeList>
      <CodeList OID="CL.AGEU" Name="Age Unit" DataType="text">
        <EnumeratedItem CodedValue="YEARS">
          <Alias Name="C29848" Context="nci:ExtCodeID"/>
        </EnumeratedItem>
        <Alias Name="C66781" Context="nci:ExtCodeID"/>
      </CodeList>
      <CodeList OID="CL.ARM" Name="ARM" DataType="text">
        <EnumeratedItem CodedValue="Placebo" OrderNumber="1"/>
        <EnumeratedItem CodedValue="Xanomeline Low Dose" OrderNumber="2"/>
        <EnumeratedItem CodedValue="Xanomeline High Dose" OrderNumber="3"/>
      </CodeList>
      <CodeList OID="CL.ARMN" Name="ARMN" DataType="integer">
        <CodeListItem CodedValue="0" OrderNumber="1">
          <Decode>
            <TranslatedText xml:lang="en">Placebo</TranslatedText>
          </Decode>
        </CodeListItem>
        <CodeListItem CodedValue="54" OrderNumber="2">
          <Decode>
            <TranslatedText xml:lang="en">Xanomeline Low Dose</TranslatedText>
          </Decode>
        </CodeListItem>
        <CodeListItem CodedValue="81" OrderNumber="3">
          <Decode>
            <TranslatedText xml:lang="en">Xanomeline High Dose</TranslatedText>
          </Decode>
        </CodeListItem>
      </CodeList>
      <CodeList OID="CL.AVISIT" Name="AVISIT" DataType="text">
        <EnumeratedItem CodedValue="Baseline" OrderNumber="1"/>
        <EnumeratedItem CodedValue="Week 8" OrderNumber="2"/>
        <EnumeratedItem CodedValue="Week 16" OrderNumber="3"/>
        <EnumeratedItem CodedValue="Week 24" OrderNumber="4"/>
      </CodeList>
      <CodeList OID="CL.AVISITN" Name="AVISITN" DataType="integer">
        <CodeListItem CodedValue="0" OrderNumber="1">
          <Decode>
            <TranslatedText xml:lang="en">Baseline</TranslatedText>
          </Decode>
        </CodeListItem>
        <CodeListItem CodedValue="8" OrderNumber="2">
          <Decode>
            <TranslatedText xml:lang="en">Week 8</TranslatedText>
          </Decode>
        </CodeListItem>
        <CodeListItem CodedValue="16" OrderNumber="3">
          <Decode>
            <TranslatedText xml:lang="en">Week 16</TranslatedText>
          </Decode>
        </CodeListItem>
        <CodeListItem CodedValue="24" OrderNumber="4">
          <Decode>
            <TranslatedText xml:lang="en">Week 24</TranslatedText>
          </Decode>
        </CodeListItem>
      </CodeList>
      <CodeList OID="CL.AWU" Name="Unit - AWU" DataType="text">
        <EnumeratedItem CodedValue="DAYS">
          <Alias Name="C25301" Context="nci:ExtCodeID"/>
        </EnumeratedItem>
        <Alias Name="C71620" Context="nci:ExtCodeID"/>
      </CodeList>
      <CodeList OID="CL.BMICAT" Name="BMICAT" DataType="text">
        <CodeListItem CodedValue="&lt;25" Rank="1">
          <Decode>
            <TranslatedText xml:lang="en">Normal</TranslatedText>
          </Decode>
        </CodeListItem>
        <CodeListItem CodedValue="25-&lt;30" Rank="2">
          <Decode>
            <TranslatedText xml:lang="en">Overweight</TranslatedText>
          </Decode>
        </CodeListItem>
        <CodeListItem CodedValue="&gt;30" Rank="3">
          <Decode>
            <TranslatedText xml:lang="en">Obese</TranslatedText>
          </Decode>
        </CodeListItem>
      </CodeList>
      <CodeList OID="CL.DISCCD" Name="Completion/Reason for Non-Completion" DataType="text">
        <EnumeratedItem CodedValue="COMPLETED" OrderNumber="1">
          <Alias Name="C25250" Context="nci:ExtCodeID"/>
        </EnumeratedItem>
        <EnumeratedItem CodedValue="ADVERSE EVENT" OrderNumber="2">
          <Alias Name="C41331" Context="nci:ExtCodeID"/>
        </EnumeratedItem>
        <EnumeratedItem CodedValue="DEATH" OrderNumber="3">
          <Alias Name="C28554" Context="nci:ExtCodeID"/>
        </EnumeratedItem>
        <EnumeratedItem CodedValue="LACK OF EFFICACY" OrderNumber="4">
          <Alias Name="C48226" Context="nci:ExtCodeID"/>
        </EnumeratedItem>
        <EnumeratedItem CodedValue="LOST TO FOLLOW-UP" OrderNumber="5">
          <Alias Name="C48227" Context="nci:ExtCodeID"/>
        </EnumeratedItem>
        <EnumeratedItem CodedValue="PHYSICIAN DECISION" OrderNumber="6">
          <Alias Name="C48250" Context="nci:ExtCodeID"/>
        </EnumeratedItem>
        <EnumeratedItem CodedValue="PROTOCOL VIOLATION" OrderNumber="7">
          <Alias Name="C48251" Context="nci:ExtCodeID"/>
        </EnumeratedItem>
        <EnumeratedItem CodedValue="STUDY TERMINATED BY SPONSOR" OrderNumber="8">
          <Alias Name="C49632" Context="nci:ExtCodeID"/>
        </EnumeratedItem>
        <EnumeratedItem CodedValue="WITHDRAWAL BY SUBJECT" OrderNumber="9">
          <Alias Name="C49634" Context="nci:ExtCodeID"/>
        </EnumeratedItem>
        <Alias Name="C66727" Context="nci:ExtCodeID"/>
      </CodeList>
      <CodeList OID="CL.DISCREAS" Name="DISCREAS" DataType="text">
        <EnumeratedItem CodedValue="Completed" OrderNumber="1"/>
        <EnumeratedItem CodedValue="Adverse Event" OrderNumber="2"/>
        <EnumeratedItem CodedValue="Death" OrderNumber="3"/>
        <EnumeratedItem CodedValue="I/E Not Met" OrderNumber="4"/>
        <EnumeratedItem CodedValue="Lack of Efficacy" OrderNumber="5"/>
        <EnumeratedItem CodedValue="Lost to Follow-up" OrderNumber="6"/>
        <EnumeratedItem CodedValue="Physician Decision" OrderNumber="7"/>
        <EnumeratedItem CodedValue="Protocol Violation" OrderNumber="8"/>
        <EnumeratedItem CodedValue="Sponsor Decision" OrderNumber="9"/>
        <EnumeratedItem CodedValue="Withdrew Consent" OrderNumber="10"/>
      </CodeList>
      <CodeList OID="CL.DTYPE" Name="Derivation Type" DataType="text">
        <CodeListItem CodedValue="LOCF">
          <Decode>
            <TranslatedText xml:lang="en">Last Observation Carried Forward</TranslatedText>
          </Decode>
          <Alias Name="C81198" Context="nci:ExtCodeID"/>
        </CodeListItem>
        <Alias Name="C81224" Context="nci:ExtCodeID"/>
      </CodeList>
      <CodeList OID="CL.DURDISC" Name="DURDISC" DataType="text">
        <EnumeratedItem CodedValue="&lt;12" Rank="1"/>
        <EnumeratedItem CodedValue="&gt;=12" Rank="2"/>
      </CodeList>
      <CodeList OID="CL.ETHNIC" Name="Ethnic Group" DataType="text">
        <EnumeratedItem CodedValue="HISPANIC OR LATINO">
          <Alias Name="C17459" Context="nci:ExtCodeID"/>
        </EnumeratedItem>
        <EnumeratedItem CodedValue="NOT HISPANIC OR LATINO">
          <Alias Name="C41222" Context="nci:ExtCodeID"/>
        </EnumeratedItem>
        <Alias Name="C66790" Context="nci:ExtCodeID"/>
      </CodeList>
      <CodeList OID="CL.PARAMCD_ADQSADAS" Name="PARAMCD_ADQSADAS" DataType="text">
        <CodeListItem CodedValue="ACITM01" OrderNumber="1">
          <Decode>
            <TranslatedText xml:lang="en">Word Recall Task</TranslatedText>
          </Decode>
        </CodeListItem>
        <CodeListItem CodedValue="ACITM02" OrderNumber="2">
          <Decode>
            <TranslatedText xml:lang="en">Naming Objects And Fingers (Refer To 5 C</TranslatedText>
          </Decode>
        </CodeListItem>
        <CodeListItem CodedValue="ACITM03" OrderNumber="3">
          <Decode>
            <TranslatedText xml:lang="en">Delayed Word Recall</TranslatedText>
          </Decode>
        </CodeListItem>
        <CodeListItem CodedValue="ACITM04" OrderNumber="4">
          <Decode>
            <TranslatedText xml:lang="en">Commands</TranslatedText>
          </Decode>
        </CodeListItem>
        <CodeListItem CodedValue="ACITM05" OrderNumber="5">
          <Decode>
            <TranslatedText xml:lang="en">Constructional Praxis</TranslatedText>
          </Decode>
        </CodeListItem>
        <CodeListItem CodedValue="ACITM06" OrderNumber="6">
          <Decode>
            <TranslatedText xml:lang="en">Ideational Praxis</TranslatedText>
          </Decode>
        </CodeListItem>
        <CodeListItem CodedValue="ACITM07" OrderNumber="7">
          <Decode>
            <TranslatedText xml:lang="en">Orientation</TranslatedText>
          </Decode>
        </CodeListItem>
        <CodeListItem CodedValue="ACITM08" OrderNumber="8">
          <Decode>
            <TranslatedText xml:lang="en">Word Recognition</TranslatedText>
          </Decode>
        </CodeListItem>
        <CodeListItem CodedValue="ACITM09" OrderNumber="9">

          <Decode>
            <TranslatedText xml:lang="en">Attention/Visual Search Task</TranslatedText>
          </Decode>
        </CodeListItem>
        <CodeListItem CodedValue="ACITM10" OrderNumber="10">

          <Decode>
            <TranslatedText xml:lang="en">Maze Solution</TranslatedText>
          </Decode>
        </CodeListItem>
        <CodeListItem CodedValue="ACITM11" OrderNumber="11">
          <Decode>
            <TranslatedText xml:lang="en">Spoken Language Ability</TranslatedText>
          </Decode>
        </CodeListItem>
        <CodeListItem CodedValue="ACITM12" OrderNumber="12">
          <Decode>
            <TranslatedText xml:lang="en">Comprehension Of Spoken Language</TranslatedText>
          </Decode>
        </CodeListItem>
        <CodeListItem CodedValue="ACITM13" OrderNumber="13">
          <Decode>
            <TranslatedText xml:lang="en">Word Finding Difficulty In Spontaneous Speech</TranslatedText>
          </Decode>
        </CodeListItem>
        <CodeListItem CodedValue="ACITM14" OrderNumber="14">
          <Decode>
            <TranslatedText xml:lang="en">Recall Of Test Instructions</TranslatedText>
          </Decode>
        </CodeListItem>
        <CodeListItem CodedValue="ACTOT" OrderNumber="15">
          <Decode>
            <TranslatedText xml:lang="en">Adas-Cog(11) Subscore</TranslatedText>
          </Decode>
        </CodeListItem>
      </CodeList>
      <CodeList OID="CL.PARAMN_ADQSADAS" Name="PARAMN_ADQSADAS" DataType="integer">
        <CodeListItem CodedValue="1" OrderNumber="1">
          <Decode>
            <TranslatedText xml:lang="en">Word Recall Task</TranslatedText>
          </Decode>
        </CodeListItem>
        <CodeListItem CodedValue="2" OrderNumber="2">
          <Decode>
            <TranslatedText xml:lang="en">Naming Objects And Fingers (Refer To 5 C</TranslatedText>
          </Decode>
        </CodeListItem>
        <CodeListItem CodedValue="3" OrderNumber="3">
          <Decode>
            <TranslatedText xml:lang="en">Delayed Word Recall</TranslatedText>
          </Decode>
        </CodeListItem>
        <CodeListItem CodedValue="4" OrderNumber="4">
          <Decode>
            <TranslatedText xml:lang="en">Commands</TranslatedText>
          </Decode>
        </CodeListItem>
        <CodeListItem CodedValue="5" OrderNumber="5">
          <Decode>
            <TranslatedText xml:lang="en">Constructional Praxis</TranslatedText>
          </Decode>
        </CodeListItem>
        <CodeListItem CodedValue="6" OrderNumber="6">
          <Decode>
            <TranslatedText xml:lang="en">Ideational Praxis</TranslatedText>
          </Decode>
        </CodeListItem>
        <CodeListItem CodedValue="7" OrderNumber="7">
          <Decode>
            <TranslatedText xml:lang="en">Orientation</TranslatedText>
          </Decode>
        </CodeListItem>
        <CodeListItem CodedValue="8" OrderNumber="8">
          <Decode>
            <TranslatedText xml:lang="en">Word Recognition</TranslatedText>
          </Decode>
        </CodeListItem>
        <CodeListItem CodedValue="9" OrderNumber="9">
          <Decode>
            <TranslatedText xml:lang="en">Attention/Visual Search Task</TranslatedText>
          </Decode>
        </CodeListItem>
        <CodeListItem CodedValue="10" OrderNumber="10">
          <Decode>
            <TranslatedText xml:lang="en">Maze Solution</TranslatedText>
          </Decode>
        </CodeListItem>
        <CodeListItem CodedValue="11" OrderNumber="11">
          <Decode>
            <TranslatedText xml:lang="en">Spoken Language Ability</TranslatedText>
          </Decode>
        </CodeListItem>
        <CodeListItem CodedValue="12" OrderNumber="12">
          <Decode>
            <TranslatedText xml:lang="en">Comprehension Of Spoken Language</TranslatedText>
          </Decode>
        </CodeListItem>
        <CodeListItem CodedValue="13" OrderNumber="13">
          <Decode>
            <TranslatedText xml:lang="en">Word Finding Difficulty In Spontaneous S</TranslatedText>
          </Decode>
        </CodeListItem>
        <CodeListItem CodedValue="14" OrderNumber="14">
          <Decode>
            <TranslatedText xml:lang="en">Recall Of Test Instructions</TranslatedText>
          </Decode>
        </CodeListItem>
        <CodeListItem CodedValue="15" OrderNumber="15">
          <Decode>
            <TranslatedText xml:lang="en">Adas-Cog(11) Subscore</TranslatedText>
          </Decode>
        </CodeListItem>
      </CodeList>
      <CodeList OID="CL.PARAM_ADQSADAS" Name="PARAM_ADQSADAS" DataType="text">
        <EnumeratedItem CodedValue="Word Recall Task" OrderNumber="1"/>
        <EnumeratedItem CodedValue="Naming Objects And Fingers (Refer To 5 C" OrderNumber="2"/>
        <EnumeratedItem CodedValue="Delayed Word Recall" OrderNumber="3"/>
        <EnumeratedItem CodedValue="Commands" OrderNumber="4"/>
        <EnumeratedItem CodedValue="Constructional Praxis" OrderNumber="5"/>
        <EnumeratedItem CodedValue="Ideational Praxis" OrderNumber="6"/>
        <EnumeratedItem CodedValue="Orientation" OrderNumber="7"/>
        <EnumeratedItem CodedValue="Word Recognition" OrderNumber="8"/>
        <EnumeratedItem CodedValue="Attention/Visual Search Task" OrderNumber="9"/>
        <EnumeratedItem CodedValue="Maze Solution" OrderNumber="10"/>
        <EnumeratedItem CodedValue="Spoken Language Ability" OrderNumber="11"/>
        <EnumeratedItem CodedValue="Comprehension Of Spoken Language" OrderNumber="12"/>
        <EnumeratedItem CodedValue="Word Finding Difficulty In Spontaneous S" OrderNumber="13"/>
        <EnumeratedItem CodedValue="Recall Of Test Instructions" OrderNumber="14"/>
        <EnumeratedItem CodedValue="Adas-Cog(11) Subscore" OrderNumber="15"/>
      </CodeList>
      <CodeList OID="CL.RACE" Name="Race" DataType="text">
        <EnumeratedItem CodedValue="WHITE" OrderNumber="1">
          <Alias Name="C41261" Context="nci:ExtCodeID"/>
        </EnumeratedItem>
        <EnumeratedItem CodedValue="BLACK OR AFRICAN AMERICAN" OrderNumber="2">
          <Alias Name="C16352" Context="nci:ExtCodeID"/>
        </EnumeratedItem>
        <EnumeratedItem CodedValue="ASIAN" OrderNumber="3">
          <Alias Name="C41260" Context="nci:ExtCodeID"/>
        </EnumeratedItem>
        <EnumeratedItem CodedValue="AMERICAN INDIAN OR ALASKA NATIVE" OrderNumber="4">
          <Alias Name="C41259" Context="nci:ExtCodeID"/>
        </EnumeratedItem>
        <Alias Name="C74457" Context="nci:ExtCodeID"/>
      </CodeList>
      <CodeList OID="CL.RACEN" Name="RACEN" DataType="integer">
        <CodeListItem CodedValue="1">
          <Decode>
            <TranslatedText xml:lang="en">WHITE</TranslatedText>
          </Decode>
        </CodeListItem>
        <CodeListItem CodedValue="2">
          <Decode>
            <TranslatedText xml:lang="en">BLACK OR AFRICAN AMERICAN</TranslatedText>
          </Decode>
        </CodeListItem>
        <CodeListItem CodedValue="6">
          <Decode>
            <TranslatedText xml:lang="en">AMERICAN INDIAN OR ALASKA NATIVE</TranslatedText>
          </Decode>
        </CodeListItem>
        <CodeListItem CodedValue="7">
          <Decode>
            <TranslatedText xml:lang="en">ASIAN</TranslatedText>
          </Decode>
        </CodeListItem>
      </CodeList>
      <CodeList OID="CL.SEX" Name="Sex" DataType="text">
        <CodeListItem CodedValue="F">
          <Decode>
            <TranslatedText xml:lang="en">Female</TranslatedText>
          </Decode>
          <Alias Name="C16576" Context="nci:ExtCodeID"/>
        </CodeListItem>
        <CodeListItem CodedValue="M">
          <Decode>
            <TranslatedText xml:lang="en">Male</TranslatedText>
          </Decode>
          <Alias Name="C20197" Context="nci:ExtCodeID"/>
        </CodeListItem>
        <CodeListItem CodedValue="U">
          <Decode>
            <TranslatedText xml:lang="en">Unknown</TranslatedText>
          </Decode>
          <Alias Name="C17998" Context="nci:ExtCodeID"/>
        </CodeListItem>
        <Alias Name="C66731" Context="nci:ExtCodeID"/>
      </CodeList>
      <CodeList OID="CL.VISIT" Name="VISIT" DataType="text">
        <EnumeratedItem CodedValue="SCREENING 1" OrderNumber="1"/>
        <EnumeratedItem CodedValue="UNSCHEDULED 1.1" OrderNumber="2"/>
        <EnumeratedItem CodedValue="UNSCHEDULED 1.2" OrderNumber="3"/>
        <EnumeratedItem CodedValue="UNSCHEDULED 1.3" OrderNumber="4"/>
        <EnumeratedItem CodedValue="SCREENING 2" OrderNumber="5"/>
        <EnumeratedItem CodedValue="BASELINE" OrderNumber="6"/>
        <EnumeratedItem CodedValue="UNSCHEDULED 3.1" OrderNumber="7"/>
        <EnumeratedItem CodedValue="AMBUL ECG PLACEMENT" OrderNumber="8"/>
        <EnumeratedItem CodedValue="WEEK 2" OrderNumber="9"/>
        <EnumeratedItem CodedValue="UNSCHEDULED 4.1" OrderNumber="10"/>
        <EnumeratedItem CodedValue="UNSCHEDULED 4.2" OrderNumber="11"/>
        <EnumeratedItem CodedValue="WEEK 4" OrderNumber="12"/>
        <EnumeratedItem CodedValue="UNSCHEDULED 5.1" OrderNumber="13"/>
        <EnumeratedItem CodedValue="AMBUL ECG REMOVAL" OrderNumber="14"/>
        <EnumeratedItem CodedValue="UNSCHEDULED 6.1" OrderNumber="15"/>
        <EnumeratedItem CodedValue="WEEK 6" OrderNumber="16"/>
        <EnumeratedItem CodedValue="UNSCHEDULED 7.1" OrderNumber="17"/>
        <EnumeratedItem CodedValue="WEEK 8" OrderNumber="18"/>
        <EnumeratedItem CodedValue="WEEK 10 (T)" OrderNumber="19"/>
        <EnumeratedItem CodedValue="UNSCHEDULED 8.2" OrderNumber="20"/>
        <EnumeratedItem CodedValue="WEEK 12" OrderNumber="21"/>
        <EnumeratedItem CodedValue="WEEK 14 (T)" OrderNumber="22"/>
        <EnumeratedItem CodedValue="UNSCHEDULED 9.2" OrderNumber="23"/>
        <EnumeratedItem CodedValue="UNSCHEDULED 9.3" OrderNumber="24"/>
        <EnumeratedItem CodedValue="WEEK 16" OrderNumber="25"/>
        <EnumeratedItem CodedValue="WEEK 18 (T)" OrderNumber="26"/>
        <EnumeratedItem CodedValue="UNSCHEDULED 10.2" OrderNumber="27"/>
        <EnumeratedItem CodedValue="WEEK 20" OrderNumber="28"/>
        <EnumeratedItem CodedValue="WEEK 22 (T)" OrderNumber="29"/>
        <EnumeratedItem CodedValue="UNSCHEDULED 11.2" OrderNumber="30"/>
        <EnumeratedItem CodedValue="WEEK 24" OrderNumber="31"/>
        <EnumeratedItem CodedValue="UNSCHEDULED 12.1" OrderNumber="32"/>
        <EnumeratedItem CodedValue="WEEK 26" OrderNumber="33"/>
        <EnumeratedItem CodedValue="UNSCHEDULED 13.1" OrderNumber="34"/>
        <EnumeratedItem CodedValue="AE FOLLOW-UP" OrderNumber="35"/>
        <EnumeratedItem CodedValue="RETRIEVAL" OrderNumber="36"/>
        <EnumeratedItem CodedValue="Rash followup" OrderNumber="37"/>
      </CodeList>
      <CodeList OID="CL.VISITNUM" Name="VISITNUM" DataType="float">
        <CodeListItem CodedValue="1" OrderNumber="1">
          <Decode>
            <TranslatedText xml:lang="en">SCREENING 1</TranslatedText>
          </Decode>
        </CodeListItem>
        <CodeListItem CodedValue="1.1" OrderNumber="2">
          <Decode>
            <TranslatedText xml:lang="en">UNSCHEDULED 1.1</TranslatedText>
          </Decode>
        </CodeListItem>
        <CodeListItem CodedValue="1.2" OrderNumber="3">
          <Decode>
            <TranslatedText xml:lang="en">UNSCHEDULED 1.2</TranslatedText>
          </Decode>
        </CodeListItem>
        <CodeListItem CodedValue="1.3" OrderNumber="4">
          <Decode>
            <TranslatedText xml:lang="en">UNSCHEDULED 1.3</TranslatedText>
          </Decode>
        </CodeListItem>
        <CodeListItem CodedValue="2" OrderNumber="5">
          <Decode>
            <TranslatedText xml:lang="en">SCREENING 2</TranslatedText>
          </Decode>
        </CodeListItem>
        <CodeListItem CodedValue="3" OrderNumber="6">
          <Decode>
            <TranslatedText xml:lang="en">BASELINE</TranslatedText>
          </Decode>
        </CodeListItem>
        <CodeListItem CodedValue="3.1" OrderNumber="7">
          <Decode>
            <TranslatedText xml:lang="en">UNSCHEDULED 3.1</TranslatedText>
          </Decode>
        </CodeListItem>
        <CodeListItem CodedValue="3.5" OrderNumber="8">
          <Decode>
            <TranslatedText xml:lang="en">AMBUL ECG PLACEMENT</TranslatedText>
          </Decode>
        </CodeListItem>
        <CodeListItem CodedValue="4" OrderNumber="9">
          <Decode>
            <TranslatedText xml:lang="en">WEEK 2</TranslatedText>
          </Decode>
        </CodeListItem>
        <CodeListItem CodedValue="4.1" OrderNumber="10">
          <Decode>
            <TranslatedText xml:lang="en">UNSCHEDULED 4.1</TranslatedText>
          </Decode>
        </CodeListItem>
        <CodeListItem CodedValue="4.2" OrderNumber="11">
          <Decode>
            <TranslatedText xml:lang="en">UNSCHEDULED 4.2</TranslatedText>
          </Decode>
        </CodeListItem>
        <CodeListItem CodedValue="5" OrderNumber="12">
          <Decode>
            <TranslatedText xml:lang="en">WEEK 4</TranslatedText>
          </Decode>
        </CodeListItem>
        <CodeListItem CodedValue="5.1" OrderNumber="13">
          <Decode>
            <TranslatedText xml:lang="en">UNSCHEDULED 5.1</TranslatedText>
          </Decode>
        </CodeListItem>
        <CodeListItem CodedValue="6" OrderNumber="14">
          <Decode>
            <TranslatedText xml:lang="en">AMBUL ECG REMOVAL</TranslatedText>
          </Decode>
        </CodeListItem>
        <CodeListItem CodedValue="6.1" OrderNumber="15">
          <Decode>
            <TranslatedText xml:lang="en">UNSCHEDULED 6.1</TranslatedText>
          </Decode>
        </CodeListItem>
        <CodeListItem CodedValue="7" OrderNumber="16">
          <Decode>
            <TranslatedText xml:lang="en">WEEK 6</TranslatedText>
          </Decode>
        </CodeListItem>
        <CodeListItem CodedValue="7.1" OrderNumber="17">
          <Decode>
            <TranslatedText xml:lang="en">UNSCHEDULED 7.1</TranslatedText>
          </Decode>
        </CodeListItem>
        <CodeListItem CodedValue="8" OrderNumber="18">
          <Decode>
            <TranslatedText xml:lang="en">WEEK 8</TranslatedText>
          </Decode>
        </CodeListItem>
        <CodeListItem CodedValue="8.1" OrderNumber="19">
          <Decode>
            <TranslatedText xml:lang="en">WEEK 10 (T)</TranslatedText>
          </Decode>
        </CodeListItem>
        <CodeListItem CodedValue="8.2" OrderNumber="20">
          <Decode>
            <TranslatedText xml:lang="en">UNSCHEDULED 8.2</TranslatedText>
          </Decode>
        </CodeListItem>
        <CodeListItem CodedValue="9" OrderNumber="21">
          <Decode>
            <TranslatedText xml:lang="en">WEEK 12</TranslatedText>
          </Decode>
        </CodeListItem>
        <CodeListItem CodedValue="9.1" OrderNumber="22">
          <Decode>
            <TranslatedText xml:lang="en">WEEK 14 (T)</TranslatedText>
          </Decode>
        </CodeListItem>
        <CodeListItem CodedValue="9.2" OrderNumber="23">
          <Decode>
            <TranslatedText xml:lang="en">UNSCHEDULED 9.2</TranslatedText>
          </Decode>
        </CodeListItem>
        <CodeListItem CodedValue="9.3" OrderNumber="24">
          <Decode>
            <TranslatedText xml:lang="en">UNSCHEDULED 9.3</TranslatedText>
          </Decode>
        </CodeListItem>
        <CodeListItem CodedValue="10" OrderNumber="25">
          <Decode>
            <TranslatedText xml:lang="en">WEEK 16</TranslatedText>
          </Decode>
        </CodeListItem>
        <CodeListItem CodedValue="10.1" OrderNumber="26">
          <Decode>
            <TranslatedText xml:lang="en">WEEK 18 (T)</TranslatedText>
          </Decode>
        </CodeListItem>
        <CodeListItem CodedValue="10.2" OrderNumber="27">
          <Decode>
            <TranslatedText xml:lang="en">UNSCHEDULED 10.2</TranslatedText>
          </Decode>
        </CodeListItem>
        <CodeListItem CodedValue="11" OrderNumber="28">
          <Decode>
            <TranslatedText xml:lang="en">WEEK 20</TranslatedText>
          </Decode>
        </CodeListItem>
        <CodeListItem CodedValue="11.1" OrderNumber="29">
          <Decode>
            <TranslatedText xml:lang="en">WEEK 22 (T)</TranslatedText>
          </Decode>
        </CodeListItem>
        <CodeListItem CodedValue="11.2" OrderNumber="30">
          <Decode>
            <TranslatedText xml:lang="en">UNSCHEDULED 11.2</TranslatedText>
          </Decode>
        </CodeListItem>
        <CodeListItem CodedValue="12" OrderNumber="31">
          <Decode>
            <TranslatedText xml:lang="en">WEEK 24</TranslatedText>
          </Decode>
        </CodeListItem>
        <CodeListItem CodedValue="12.1" OrderNumber="32">
          <Decode>
            <TranslatedText xml:lang="en">UNSCHEDULED 12.1</TranslatedText>
          </Decode>
        </CodeListItem>
        <CodeListItem CodedValue="13" OrderNumber="33">
          <Decode>
            <TranslatedText xml:lang="en">WEEK 26</TranslatedText>
          </Decode>
        </CodeListItem>
        <CodeListItem CodedValue="13.1" OrderNumber="34">
          <Decode>
            <TranslatedText xml:lang="en">UNSCHEDULED 13.1</TranslatedText>
          </Decode>
        </CodeListItem>
        <CodeListItem CodedValue="101" OrderNumber="35">
          <Decode>
            <TranslatedText xml:lang="en">AE FOLLOW-UP</TranslatedText>
          </Decode>
        </CodeListItem>
        <CodeListItem CodedValue="201" OrderNumber="36">
          <Decode>
            <TranslatedText xml:lang="en">RETRIEVAL</TranslatedText>
          </Decode>
        </CodeListItem>
        <CodeListItem CodedValue="501" OrderNumber="37">
          <Decode>
            <TranslatedText xml:lang="en">Rash followup</TranslatedText>
          </Decode>
        </CodeListItem>
      </CodeList>
      <CodeList OID="CL.YN" Name="No Yes Response" DataType="text">
        <CodeListItem CodedValue="N">
          <Decode>
            <TranslatedText xml:lang="en">No</TranslatedText>
          </Decode>
          <Alias Name="C49487" Context="nci:ExtCodeID"/>
        </CodeListItem>
        <CodeListItem CodedValue="Y">
          <Decode>
            <TranslatedText xml:lang="en">Yes</TranslatedText>
          </Decode>
          <Alias Name="C49488" Context="nci:ExtCodeID"/>
        </CodeListItem>
        <Alias Name="C66742" Context="nci:ExtCodeID"/>
      </CodeList>
      <CodeList OID="CL.Y_BLANK" Name="No Yes Response - Y subset" DataType="text">
        <CodeListItem CodedValue="Y">
          <Decode>
            <TranslatedText xml:lang="en">Yes</TranslatedText>
          </Decode>
          <Alias Name="C49488" Context="nci:ExtCodeID"/>
        </CodeListItem>
        <Alias Name="C66742" Context="nci:ExtCodeID"/>
      </CodeList>

      <!-- ******************************** -->
      <!-- Methods Definitions Section      -->
      <!-- ******************************** -->

      <MethodDef OID="MT.ADQSADAS.AVISIT" Name="CM.ADQSADAS.AVISIT" Type="Computation">
        <Description>
          <TranslatedText xml:lang="en">Derived based on windowing algorithm described in SAP, Section 8.2</TranslatedText>
        </Description>
      </MethodDef>
      <MethodDef OID="MT.ADQSADAS.ADY" Name="CM.ADQSADAS.ADY" Type="Computation">
        <Description>
          <TranslatedText xml:lang="en">ADY = ADT - TRTSDT + 1, if ADT&gt;=TRTSDT. ADY = ADT - TRTSDT, if ADT&lt;TRTSDT.</TranslatedText>
        </Description>
      </MethodDef>
      <MethodDef OID="MT.ADQSADAS.ADT" Name="CM.ADQSADAS.ADT" Type="Computation">
        <Description>
          <TranslatedText xml:lang="en">SAS date from QS.QSDTC</TranslatedText>
        </Description>
      </MethodDef>
      <MethodDef OID="MT.ADQSADAS.AVAL" Name="CM.ADQSADAS.AVAL" Type="Computation">
        <Description>
          <TranslatedText xml:lang="en">Derivations are described per parameter in the parameter value level metadata</TranslatedText>
        </Description>
      </MethodDef>
      <MethodDef OID="MT.ADQSADAS.BASE" Name="CM.ADQSADAS.BASE" Type="Computation">
        <Description>
          <TranslatedText xml:lang="en">QS.QSSTRESN when QS.QSBLFL=Y (QS.VISITNUM=3)</TranslatedText>
        </Description>
      </MethodDef>
      <MethodDef OID="MT.ADQSADAS.CHG" Name="CM.ADQSADAS.CHG" Type="Computation">
        <Description>
          <TranslatedText xml:lang="en">AVAL - BASE</TranslatedText>
        </Description>
      </MethodDef>
      <MethodDef OID="MT.ADQSADAS.PCHG" Name="CM.ADQSADAS.PCHG" Type="Computation">
        <Description>
          <TranslatedText xml:lang="en">100* (CHG/BASE)</TranslatedText>
        </Description>
      </MethodDef>
      <MethodDef OID="MT.ADQSADAS.ANL01FL" Name="CM.ADQSADAS.ANL01FL" Type="Computation">
        <Description>
          <TranslatedText xml:lang="en">If multiple visits fall into the same visit window, then the one closest to the target date is chosen for analysis. These are flagged with ANL01FL="Y".</TranslatedText>
        </Description>
      </MethodDef>
      <MethodDef OID="MT.ADQSADAS.AWTDIFF" Name="CM.ADQSADAS.AWTDIFF" Type="Computation">
        <Description>
          <TranslatedText xml:lang="en">Absolute difference between AWTARGET and ADY</TranslatedText>
        </Description>
      </MethodDef>
      <MethodDef OID="MT.ADSL.SITEGR1" Name="CM.ADSL.SITEGR1" Type="Computation">
        <Description>
          <TranslatedText xml:lang="en">refer to SAP, Section 7.1 - if not pooled then SITEGR1=SITEID. If pooled, SITEGR1 will be 900</TranslatedText>
        </Description>
      </MethodDef>
      <MethodDef OID="MT.ADSL.TRTSDT" Name="CM.ADSL.TRTSDT" Type="Computation">
        <Description>
          <TranslatedText xml:lang="en">SV.SVSTDTC when SV.VISITNUM=3, converted to SAS date</TranslatedText>
        </Description>
      </MethodDef>
      <MethodDef OID="MT.ADSL.TRTEDT" Name="CM.ADSL.TRTEDT" Type="Computation">
        <Description>
          <TranslatedText xml:lang="en">The date of final dose (from the CRF) is EX.EXENDTC on the subject's last EX record. If the date of final dose is missing for the subject and the subject discontinued after visit 3, use the date of discontinuation as the date of last dose. Convert the date to a SAS date.</TranslatedText>
        </Description>
      </MethodDef>
      <MethodDef OID="MT.ADSL.TRTDUR" Name="CM.ADSL.TRTDUR" Type="Computation">
        <Description>
          <TranslatedText xml:lang="en">TRTEDT-TRTSDT+1</TranslatedText>
        </Description>
      </MethodDef>
      <MethodDef OID="MT.ADSL.AVGDD" Name="CM.ADSL.AVGDD" Type="Computation">
        <Description>
          <TranslatedText xml:lang="en">CUMDOSE/TRTDUR</TranslatedText>
        </Description>
      </MethodDef>
      <MethodDef OID="MT.ADSL.CUMDOSE" Name="CM.ADSL.CUMDOSE" Type="Computation">
        <Description>
          <TranslatedText xml:lang="en">For ARMN=0 or 1: CUMDOSE=TRT01PN*TRTDUR. --- For ARMN=2: CUMDOSE will be based on 54mg per day for the # of days subj was in 1st dosing interval (i.e., visit4date-TRTSTDT+1 if 1st interval completed, TRTEDT-TRTSTDT+1 if subj discontinued &lt;=visit 4 and &gt; visit 3), 81mg per day for the # of days subj was in 2nd dosing interval (i.e., visit12date-visit4date if 2nd interval completed, TRTEDT-visit4date if subj discontinued &lt;= visit 12 and &gt; visit 4), and 54mg per day for the # of days subj was in 3rd dosing interval (i.e., TRTEDT - visit12date if subj continued after visit 12).</TranslatedText>
        </Description>
      </MethodDef>
      <MethodDef OID="MT.ADSL.AGEGR1" Name="CM.ADSL.AGEGR1" Type="Computation">
        <Description>
          <TranslatedText xml:lang="en">Character variable derived from ADSL.AGEGR1N</TranslatedText>
        </Description>
      </MethodDef>
      <MethodDef OID="MT.ADSL.SAFFL" Name="CM.ADSL.SAFFL" Type="Computation">
        <Description>
          <TranslatedText xml:lang="en">Y if ITTFL='Y' and TRTSDT ne missing. N otherwise</TranslatedText>
        </Description>
      </MethodDef>
      <MethodDef OID="MT.ADSL.ITTFL" Name="CM.ADSL.ITTFL" Type="Computation">
        <Description>
          <TranslatedText xml:lang="en">Y if ARMCD ne ' '. N otherwise</TranslatedText>
        </Description>
      </MethodDef>
      <MethodDef OID="MT.ADSL.EFFFL" Name="CM.ADSL.EFFFL" Type="Computation">
        <Description>
          <TranslatedText xml:lang="en">Y if SAFFL='Y AND subject has at least one record in QS for ADAS-Cog with VISITNUM&gt;3 AND at least one record in QS for CIBIC+ with VISITNUM&gt;3, N otherwise</TranslatedText>
        </Description>
      </MethodDef>
      <MethodDef OID="MT.ADSL.COMP8FL" Name="CM.ADSL.COMP8FL" Type="Computation">
        <Description>
          <TranslatedText xml:lang="en">Y if subject has a SV.VISITNUM=8 and ENDDT &gt;= date of visit 8, N otherwise</TranslatedText>
        </Description>
      </MethodDef>
      <MethodDef OID="MT.ADSL.COMP16FL" Name="CM.ADSL.COMP16FL" Type="Computation">
        <Description>
          <TranslatedText xml:lang="en">Y if subject has a SV.VISITNUM=10 and ENDDT&gt;=date of visit 10, N otherwise</TranslatedText>
        </Description>
      </MethodDef>
      <MethodDef OID="MT.ADSL.COMP24FL" Name="CM.ADSL.COMP24FL" Type="Computation">
        <Description>
          <TranslatedText xml:lang="en">Y if subject has a SV.VISITNUM=12 and ENDDT&gt;= date of visit 12 , N otherwise</TranslatedText>
        </Description>
      </MethodDef>
      <MethodDef OID="MT.ADSL.DISCONFL" Name="CM.ADSL.DISCONFL" Type="Computation">
        <Description>
          <TranslatedText xml:lang="en">Y if DCREASCD ^= 'Completed'. Null otherwise</TranslatedText>
        </Description>
      </MethodDef>
      <MethodDef OID="MT.ADSL.DSRAEFL" Name="CM.ADSL.DSRAEFL" Type="Computation">
        <Description>
          <TranslatedText xml:lang="en">Y if DCREASCD='Adverse Event'. Null otherwise</TranslatedText>
        </Description>
      </MethodDef>
      <MethodDef OID="MT.ADSL.BMIBL" Name="CM.ADSL.BMIBL" Type="Computation">
        <Description>
          <TranslatedText xml:lang="en">WEIGHTBL / ((HEIGHTBL*100)**2)</TranslatedText>
        </Description>
      </MethodDef>
      <MethodDef OID="MT.ADSL.BMIBLGR1" Name="CM.ADSL.BMIBLGR1" Type="Computation">
        <Description>
          <TranslatedText xml:lang="en">BMIBLGR1=Normal if . &lt; BMIBL &lt;25. BMIBLGR1=Overweight if 25 &lt;=BMIBL &lt;30. BMIBLGR1=Obese if BMIBL &gt;=30</TranslatedText>
        </Description>
      </MethodDef>
      <MethodDef OID="MT.ADSL.HEIGHTBL" Name="CM.ADSL.HEIGHTBL" Type="Computation">
        <Description>
          <TranslatedText xml:lang="en">VSSTRESN when VS.VSTESTCD='HEIGHT' and VS.VISITNUM=1</TranslatedText>
        </Description>
      </MethodDef>
      <MethodDef OID="MT.ADSL.WEIGHTBL" Name="CM.ADSL.WEIGHTBL" Type="Computation">
        <Description>
          <TranslatedText xml:lang="en">VSSTRESN when VS.VSTESTCD='WEIGHT' and VS.VISITNUM=3</TranslatedText>
        </Description>
      </MethodDef>
      <MethodDef OID="MT.ADSL.EDUCLVL" Name="CM.ADSL.EDUCLVL" Type="Computation">
        <Description>
          <TranslatedText xml:lang="en">SC.SCSTRESN where SC.SCTESTCD=YEARSEDU</TranslatedText>
        </Description>
      </MethodDef>
      <MethodDef OID="MT.ADSL.DISONSDT" Name="CM.ADSL.DISONSDT" Type="Computation">
        <Description>
          <TranslatedText xml:lang="en">MH.MHSTDTC where MHCAT='PRIMARY DIAGNOSIS' converted to SAS date</TranslatedText>
        </Description>
      </MethodDef>
      <MethodDef OID="MT.ADSL.DURDIS" Name="CM.ADSL.DURDIS" Type="Computation">
        <Description>
          <TranslatedText xml:lang="en">number of months between VISIT1DT and DISONSET</TranslatedText>
        </Description>
      </MethodDef>
      <MethodDef OID="MT.ADSL.DURDSGR1" Name="CM.ADSL.DURDSGR1" Type="Computation">
        <Description>
          <TranslatedText xml:lang="en">grouping DURDIS values as &lt;12 and &gt;=12</TranslatedText>
        </Description>
      </MethodDef>
      <MethodDef OID="MT.ADSL.VISIT1DT" Name="CM.ADSL.VISIT1DT" Type="Computation">
        <Description>
          <TranslatedText xml:lang="en">SV.SVSTDTC when SV.VISITNUM=1, converted to SAS date</TranslatedText>
        </Description>
      </MethodDef>
      <MethodDef OID="MT.ADSL.VISNUMEN" Name="CM.ADSL.VISNUMEN" Type="Computation">
        <Description>
          <TranslatedText xml:lang="en">if DS.VISITNUM=13 where DSTERM='PROTCOL COMPLETED' then VISNUMEN=12, otherwise VISNUMEN=DS.VISITNUM where DSTERM='PROTCOL COMPLETED'</TranslatedText>
        </Description>
      </MethodDef>
      <MethodDef OID="MT.ADSL.RFENDT" Name="CM.ADSL.RFENDT" Type="Computation">
        <Description>
          <TranslatedText xml:lang="en">RFENDTC converted to SAS date</TranslatedText>
        </Description>
      </MethodDef>
      <MethodDef OID="MT.ADSL.DCDECOD" Name="CM.ADSL.DCDECOD" Type="Computation">
        <Description>
          <TranslatedText xml:lang="en">DS.DSDECOD where DSCAT='DISPOSITION EVENT'</TranslatedText>
        </Description>
      </MethodDef>
      <MethodDef OID="MT.ADSL.DCREASCD" Name="CM.ADSL.DCREASCD" Type="Computation">
        <Description>
          <TranslatedText xml:lang="en">Grouping of DCDECOD values to support summarizing study completion status and reason for discontinuation</TranslatedText>
        </Description>
      </MethodDef>
      <MethodDef OID="MT.ADSL.MMSETOT" Name="CM.ADSL.MMSETOT" Type="Computation">
        <Description>
          <TranslatedText xml:lang="en">sum of QS.QSORRES values for the subject</TranslatedText>
        </Description>
      </MethodDef>
      <MethodDef OID="MT.ADQSADAS.AVAL.ACITM01-ACITM14" Name="CM.ADQSADAS.AVAL.ACITM01-ACITM14" Type="Computation">
        <Description>
          <TranslatedText xml:lang="en">QS.QSSTRESN where QSTESTCD=PARAMCD</TranslatedText>
        </Description>
      </MethodDef>
      <MethodDef OID="MT.ADQSADAS.AVAL.ACTOT" Name="CM.ADQSADAS.AVAL.ACTOT" Type="Computation">
        <Description>
          <TranslatedText xml:lang="en">Sum of ADAS scores for items 1, 2, 4, 5, 6, 7, 8, 11, 12, 13, and 14, see Analysis Data Reviewers Guide (Page 3) for details on adjusting for missing values.</TranslatedText>
        </Description>
        <def:DocumentRef leafID="LF.ADRG">
          <def:PDFPageRef PageRefs="3" Type="PhysicalRef"/>
        </def:DocumentRef>

      </MethodDef>

      <!-- ******************************** -->
      <!-- Comments Definitions Section     -->
      <!-- ******************************** -->

      <def:CommentDef OID="COM.ADSL">
        <Description>
          <TranslatedText>Screen Failures are excluded since they are not needed for this study analysis</TranslatedText>
        </Description>
      </def:CommentDef>
      <def:CommentDef OID="COM.ADQSADAS">
        <Description>
          <TranslatedText>See referenced dataset creation program and Analysis Data Reviewer's Guide, Section 2.1</TranslatedText>
        </Description>
        <def:DocumentRef leafID="LF.ADQSADAS.PGM"/>
        <def:DocumentRef leafID="LF.ADRG">
          <def:PDFPageRef PageRefs="Section2.1" Type="NamedDestination"/>
        </def:DocumentRef>
      </def:CommentDef>
      <def:CommentDef OID="COM.ADQSADAS.AVISITN">
        <Description>
          <TranslatedText>Numeric code for AVISIT</TranslatedText>
        </Description>
      </def:CommentDef>
      <def:CommentDef OID="COM.ADQSADAS.PARAMN">
        <Description>
          <TranslatedText>Assign a numeric code for each value of PARAMCD (see codelist PARAMN_ADQSADAS)</TranslatedText>
        </Description>
      </def:CommentDef>
      <def:CommentDef OID="COM.ADQSADAS.AWRANGE">
        <Description>
          <TranslatedText>Window range, specified in the SAP.</TranslatedText>
        </Description>
      </def:CommentDef>
      <def:CommentDef OID="COM.ADQSADAS.AWTARGET">
        <Description>
          <TranslatedText>Target day within the window, specified in the SAP.</TranslatedText>
        </Description>
      </def:CommentDef>
      <def:CommentDef OID="COM.ADQSADAS.AWLO">
        <Description>
          <TranslatedText>Start day of the window, specified in the SAP.</TranslatedText>
        </Description>
      </def:CommentDef>
      <def:CommentDef OID="COM.ADQSADAS.AWHI">
        <Description>
          <TranslatedText>End day of the window, specified in the SAP.</TranslatedText>
        </Description>
      </def:CommentDef>
      <def:CommentDef OID="COM.ADQSADAS.AWU">
        <Description>
          <TranslatedText>Assigned as "DAYS".</TranslatedText>
        </Description>
      </def:CommentDef>
      <def:CommentDef OID="COM.ADSL.TRT01PN">
        <Description>
          <TranslatedText>Numeric code for TRT01P which corresponds to the randomized dose</TranslatedText>
        </Description>
      </def:CommentDef>
      <def:CommentDef OID="COM.ADSL.TRT01A">
        <Description>
          <TranslatedText>TRT01A=TRT01P, i.e., no difference between actual and randomized treatment in this study.</TranslatedText>
        </Description>
      </def:CommentDef>
      <def:CommentDef OID="COM.ADSL.TRT01AN">
        <Description>
          <TranslatedText>Numeric code for TRT01A which corresponds to the randomized dose</TranslatedText>
        </Description>
      </def:CommentDef>
      <def:CommentDef OID="COM.ADSL.AGEGR1N">
        <Description>
          <TranslatedText>AGEGR1 = 1 if AGE &lt;65. AGEGR1 = 2 if AGE 65-80. AGEGR1 = 3 if AGE &gt;80.</TranslatedText>
        </Description>
      </def:CommentDef>
      <def:CommentDef OID="COM.ADSL.RACEN">
        <Description>
          <TranslatedText>Numeric code for RACE</TranslatedText>
        </Description>
      </def:CommentDef>
      <def:CommentDef OID="COM.ADQSADAS.DTYPE.ACITM01-ACITM14">
        <Description>
          <TranslatedText>Value: null</TranslatedText>
        </Description>
      </def:CommentDef>
      <def:CommentDef OID="COM.ADQSADAS.DTYPE.ACTOT">
        <Description>
          <TranslatedText>Value: LOCF denotes that the LOCF imputation method was used to impute the value for the given parameter and analysis visit.</TranslatedText>
        </Description>
      </def:CommentDef>
      <def:CommentDef OID="COM.ADQSADAS.QSSEQ.ACTOT">
        <Description>
          <TranslatedText>Set QSSEQ to missing for post baseline records. Set to QS.QSSEQ where QS.VISIT=BASELINE and QS.QSTESTCD=ACTOT.</TranslatedText>
        </Description>
      </def:CommentDef>

      <!-- ******************************** -->
      <!-- Leafs Definitions Section        -->
      <!-- ******************************** -->

      <def:leaf ID="LF.ADRG" xlink:href="analysis-data-reviewers-guide.pdf">
        <def:title>Analysis Data Reviewer's Guide</def:title>
      </def:leaf>
      <def:leaf ID="LF.ADQSADAS.PGM" xlink:href="../programs/adqsadas-sas.txt">
        <def:title>adqsadas.sas</def:title>
      </def:leaf>

      <!-- ***********************************     -->
      <!-- End of Metadata Definitions Section     -->
      <!-- ***********************************     -->

    </MetaDataVersion>
  </Study>
</ODM>
