<?xml version="1.0" encoding="UTF-8"?>
<ODM CreationDateTime="2014-08-19T14:37:11" FileOID="Semantics.Manager.Define-XML_2.0.0_SDTM_1.0_1403536355619-785103875" FileType="Snapshot" ODMVersion="1.3.2" Originator="CDISC" SourceSystem="SHARE" SourceSystemVersion="1.0 (6.6.10060)" xmlns="http://www.cdisc.org/ns/odm/v1.3" xmlns:def="http://www.cdisc.org/ns/def/v2.0" xmlns:xlink="http://www.w3.org/1999/xlink" xmlns:xsi="http://www.w3.org/2001/XMLSchema-instance" xsi:schemaLocation="http://www.cdisc.org/ns/odm/v1.3 define2-0-0.xsd">
  <Study OID="Study.SDTM.MDES_3.2">
    <GlobalVariables>
      <StudyName>Study - SDTM</StudyName>
      <StudyDescription>Export of SDTM with version MDES 3.2</StudyDescription>
      <ProtocolName>SDTM</ProtocolName>
    </GlobalVariables>
    <MetaDataVersion Description="SDTM MDES 3.2" Name="SDTM MDV" OID="MDV.SDTM.2014-08-19_14:37:11" def:DefineVersion="2.0.0" def:StandardName="SDTM" def:StandardVersion="MDES 3.2" xmlns:def="http://www.cdisc.org/ns/def/v2.0">
      <ItemGroupDef Domain="AE" Name="AE" OID="IG.MDES.AE.[SDTM]_MDES_3" Purpose="Tabulation" Repeating="Yes" def:Class="EVENTS" def:Structure="One record per adverse event per subject">
        <Description>
          <TranslatedText xml:lang="en">Adverse Events</TranslatedText>
        </Description>
        <ItemRef ItemOID="IT.MDE.STUDYID.[SDTM_AE]_MDE_1" Mandatory="Yes" OrderNumber="1" Role="Identifier"/>
        <ItemRef ItemOID="IT.MDE.DOMAIN.[SDTM_AE]_MDE_1" Mandatory="Yes" OrderNumber="2" Role="Identifier"/>
        <ItemRef ItemOID="IT.MDE.USUBJID.[SDTM_AE]_MDE_1" Mandatory="Yes" OrderNumber="3" Role="Identifier"/>
        <ItemRef ItemOID="IT.MDE.AESEQ.[SDTM_AE]_MDE_1" Mandatory="Yes" OrderNumber="4" Role="Identifier"/>
        <ItemRef ItemOID="IT.MDE.AEGRPID.[SDTM_AE]_MDE_1" Mandatory="No" OrderNumber="5" Role="Identifier"/>
        <ItemRef ItemOID="IT.MDE.AEREFID.[SDTM_AE]_MDE_2" Mandatory="No" OrderNumber="6" Role="Identifier"/>
        <ItemRef ItemOID="IT.MDE.AESPID.[SDTM_AE]_MDE_2" Mandatory="No" OrderNumber="7" Role="Identifier"/>
        <ItemRef ItemOID="IT.MDE.AETERM.[SDTM_AE]_MDE_1" Mandatory="Yes" OrderNumber="8" Role="Topic"/>
        <ItemRef ItemOID="IT.MDE.AEMODIFY.[SDTM_AE]_MDE_1" Mandatory="No" OrderNumber="9" Role="Synonym Qualifier"/>
        <ItemRef ItemOID="IT.MDE.AELLT.[SDTM_AE]_MDE_1" Mandatory="No" OrderNumber="10" Role="Variable Qualifier"/>
        <ItemRef ItemOID="IT.MDE.AELLTCD.[SDTM_AE]_MDE_1" Mandatory="No" OrderNumber="11" Role="Variable Qualifier"/>
        <ItemRef ItemOID="IT.MDE.AEDECOD.[SDTM_AE]_MDE_2" Mandatory="Yes" OrderNumber="12" Role="Synonym Qualifier"/>
        <ItemRef ItemOID="IT.MDE.AEPTCD.[SDTM_AE]_MDE_1" Mandatory="No" OrderNumber="13" Role="Variable Qualifier"/>
        <ItemRef ItemOID="IT.MDE.AEHLT.[SDTM_AE]_MDE_1" Mandatory="No" OrderNumber="14" Role="Variable Qualifier"/>
        <ItemRef ItemOID="IT.MDE.AEHLTCD.[SDTM_AE]_MDE_1" Mandatory="No" OrderNumber="15" Role="Variable Qualifier"/>
        <ItemRef ItemOID="IT.MDE.AEHLGT.[SDTM_AE]_MDE_1" Mandatory="No" OrderNumber="16" Role="Variable Qualifier"/>
        <ItemRef ItemOID="IT.MDE.AEHLGTCD.[SDTM_AE]_MDE_1" Mandatory="No" OrderNumber="17" Role="Variable Qualifier"/>
        <ItemRef ItemOID="IT.MDE.AECAT.[SDTM_AE]_MDE_1" Mandatory="No" OrderNumber="18" Role="Grouping Qualifier"/>
        <ItemRef ItemOID="IT.MDE.AESCAT.[SDTM_AE]_MDE_1" Mandatory="No" OrderNumber="19" Role="Grouping Qualifier"/>
        <ItemRef ItemOID="IT.MDE.AEPRESP.[SDTM_AE]_MDE_2" Mandatory="No" OrderNumber="20" Role="Variable Qualifier"/>
        <ItemRef ItemOID="IT.MDE.AEBODSYS.[SDTM_AE]_MDE_2" Mandatory="No" OrderNumber="21" Role="Record Qualifier"/>
        <ItemRef ItemOID="IT.MDE.AEBDSYCD.[SDTM_AE]_MDE_2" Mandatory="No" OrderNumber="22" Role="Variable Qualifier"/>
        <ItemRef ItemOID="IT.MDE.AESOC.[SDTM_AE]_MDE_1" Mandatory="No" OrderNumber="23" Role="Variable Qualifier"/>
        <ItemRef ItemOID="IT.MDE.AESOCCD.[SDTM_AE]_MDE_1" Mandatory="No" OrderNumber="24" Role="Variable Qualifier"/>
        <ItemRef ItemOID="IT.MDE.AELOC.[SDTM_AE]_MDE_2" Mandatory="No" OrderNumber="25" Role="Record Qualifier"/>
        <ItemRef ItemOID="IT.MDE.AESEV.[SDTM_AE]_MDE_1" Mandatory="No" OrderNumber="26" Role="Record Qualifier"/>
        <ItemRef ItemOID="IT.MDE.AESER.[SDTM_AE]_MDE_1" Mandatory="No" OrderNumber="27" Role="Record Qualifier"/>
        <ItemRef ItemOID="IT.MDE.AEACN.[SDTM_AE]_MDE_2" Mandatory="No" OrderNumber="28" Role="Record Qualifier"/>
        <ItemRef ItemOID="IT.MDE.AEACNOTH.[SDTM_AE]_MDE_2" Mandatory="No" OrderNumber="29" Role="Record Qualifier"/>
        <ItemRef ItemOID="IT.MDE.AEREL.[SDTM_AE]_MDE_2" Mandatory="No" OrderNumber="30" Role="Record Qualifier"/>
        <ItemRef ItemOID="IT.MDE.AERELNST.[SDTM_AE]_MDE_2" Mandatory="No" OrderNumber="31" Role="Record Qualifier"/>
        <ItemRef ItemOID="IT.MDE.AEPATT.[SDTM_AE]_MDE_1" Mandatory="No" OrderNumber="32" Role="Record Qualifier"/>
        <ItemRef ItemOID="IT.MDE.AEOUT.[SDTM_AE]_MDE_1" Mandatory="No" OrderNumber="33" Role="Record Qualifier"/>
        <ItemRef ItemOID="IT.MDE.AESCAN.[SDTM_AE]_MDE_1" Mandatory="No" OrderNumber="34" Role="Record Qualifier"/>
        <ItemRef ItemOID="IT.MDE.AESCONG.[SDTM_AE]_MDE_1" Mandatory="No" OrderNumber="35" Role="Record Qualifier"/>
        <ItemRef ItemOID="IT.MDE.AESDISAB.[SDTM_AE]_MDE_1" Mandatory="No" OrderNumber="36" Role="Record Qualifier"/>
        <ItemRef ItemOID="IT.MDE.AESDTH.[SDTM_AE]_MDE_1" Mandatory="No" OrderNumber="37" Role="Record Qualifier"/>
        <ItemRef ItemOID="IT.MDE.AESHOSP.[SDTM_AE]_MDE_1" Mandatory="No" OrderNumber="38" Role="Record Qualifier"/>
        <ItemRef ItemOID="IT.MDE.AESLIFE.[SDTM_AE]_MDE_1" Mandatory="No" OrderNumber="39" Role="Record Qualifier"/>
        <ItemRef ItemOID="IT.MDE.AESOD.[SDTM_AE]_MDE_1" Mandatory="No" OrderNumber="40" Role="Record Qualifier"/>
        <ItemRef ItemOID="IT.MDE.AESMIE.[SDTM_AE]_MDE_1" Mandatory="No" OrderNumber="41" Role="Record Qualifier"/>
        <ItemRef ItemOID="IT.MDE.AECONTRT.[SDTM_AE]_MDE_1" Mandatory="No" OrderNumber="42" Role="Record Qualifier"/>
        <ItemRef ItemOID="IT.MDE.AETOXGR.[SDTM_AE]_MDE_3" Mandatory="No" OrderNumber="43" Role="Record Qualifier"/>
        <ItemRef ItemOID="IT.MDE.AESTDTC.[SDTM_AE]_MDE_1" Mandatory="No" OrderNumber="44" Role="Timing"/>
        <ItemRef ItemOID="IT.MDE.AEENDTC.[SDTM_AE]_MDE_1" Mandatory="No" OrderNumber="45" Role="Timing"/>
        <ItemRef ItemOID="IT.MDE.AESTDY.[SDTM_AE]_MDE_1" Mandatory="No" OrderNumber="46" Role="Timing"/>
        <ItemRef ItemOID="IT.MDE.AEENDY.[SDTM_AE]_MDE_1" Mandatory="No" OrderNumber="47" Role="Timing"/>
        <ItemRef ItemOID="IT.MDE.AEDUR.[SDTM_AE]_MDE_1" Mandatory="No" OrderNumber="48" Role="Timing"/>
        <ItemRef ItemOID="IT.MDE.AEENRF.[SDTM_AE]_MDE_1" Mandatory="No" OrderNumber="49" Role="Timing"/>
        <ItemRef ItemOID="IT.MDE.AEENRTPT.[SDTM_AE]_MDE_2" Mandatory="No" OrderNumber="50" Role="Timing"/>
        <ItemRef ItemOID="IT.MDE.AEENTPT.[SDTM_AE]_MDE_1" Mandatory="No" OrderNumber="51" Role="Timing"/>
      </ItemGroupDef>
      <ItemGroupDef Domain="CE" Name="CE" OID="IG.MDES.CE.[SDTM]_MDES_3" Purpose="Tabulation" Repeating="Yes" def:Class="EVENTS" def:Structure="One record per event per subject">
        <Description>
          <TranslatedText xml:lang="en">Clinical Events</TranslatedText>
        </Description>
        <ItemRef ItemOID="IT.MDE.STUDYID.[SDTM_CE]_MDE_1" Mandatory="Yes" OrderNumber="1" Role="Identifier"/>
        <ItemRef ItemOID="IT.MDE.DOMAIN.[SDTM_CE]_MDE_1" Mandatory="Yes" OrderNumber="2" Role="Identifier"/>
        <ItemRef ItemOID="IT.MDE.USUBJID.[SDTM_CE]_MDE_1" Mandatory="Yes" OrderNumber="3" Role="Identifier"/>
        <ItemRef ItemOID="IT.MDE.CESEQ.[SDTM_CE]_MDE_1" Mandatory="Yes" OrderNumber="4" Role="Identifier"/>
        <ItemRef ItemOID="IT.MDE.CEGRPID.[SDTM_CE]_MDE_1" Mandatory="No" OrderNumber="5" Role="Identifier"/>
        <ItemRef ItemOID="IT.MDE.CEREFID.[SDTM_CE]_MDE_1" Mandatory="No" OrderNumber="6" Role="Identifier"/>
        <ItemRef ItemOID="IT.MDE.CESPID.[SDTM_CE]_MDE_2" Mandatory="No" OrderNumber="7" Role="Identifier"/>
        <ItemRef ItemOID="IT.MDE.CETERM.[SDTM_CE]_MDE_1" Mandatory="Yes" OrderNumber="8" Role="Topic"/>
        <ItemRef ItemOID="IT.MDE.CEDECOD.[SDTM_CE]_MDE_1" Mandatory="No" OrderNumber="9" Role="Synonym Qualifier"/>
        <ItemRef ItemOID="IT.MDE.CECAT.[SDTM_CE]_MDE_1" Mandatory="No" OrderNumber="10" Role="Grouping Qualifier"/>
        <ItemRef ItemOID="IT.MDE.CESCAT.[SDTM_CE]_MDE_1" Mandatory="No" OrderNumber="11" Role="Grouping Qualifier"/>
        <ItemRef ItemOID="IT.MDE.CEPRESP.[SDTM_CE]_MDE_1" Mandatory="No" OrderNumber="12" Role="Variable Qualifier"/>
        <ItemRef ItemOID="IT.MDE.CEOCCUR.[SDTM_CE]_MDE_1" Mandatory="No" OrderNumber="13" Role="Record Qualifier"/>
        <ItemRef ItemOID="IT.MDE.CESTAT.[SDTM_CE]_MDE_1" Mandatory="No" OrderNumber="14" Role="Record Qualifier"/>
        <ItemRef ItemOID="IT.MDE.CEREASND.[SDTM_CE]_MDE_1" Mandatory="No" OrderNumber="15" Role="Record Qualifier"/>
        <ItemRef ItemOID="IT.MDE.CEBODSYS.[SDTM_CE]_MDE_2" Mandatory="No" OrderNumber="16" Role="Record Qualifier"/>
        <ItemRef ItemOID="IT.MDE.CESEV.[SDTM_CE]_MDE_1" Mandatory="No" OrderNumber="17" Role="Record Qualifier"/>
        <ItemRef ItemOID="IT.MDE.CEDTC.[SDTM_CE]_MDE_1" Mandatory="No" OrderNumber="18" Role="Timing"/>
        <ItemRef ItemOID="IT.MDE.CESTDTC.[SDTM_CE]_MDE_1" Mandatory="No" OrderNumber="19" Role="Timing"/>
        <ItemRef ItemOID="IT.MDE.CEENDTC.[SDTM_CE]_MDE_1" Mandatory="No" OrderNumber="20" Role="Timing"/>
        <ItemRef ItemOID="IT.MDE.CEDY.[SDTM_CE]_MDE_1" Mandatory="No" OrderNumber="21" Role="Timing"/>
        <ItemRef ItemOID="IT.MDE.CESTRF.[SDTM_CE]_MDE_1" Mandatory="No" OrderNumber="22" Role="Timing"/>
        <ItemRef ItemOID="IT.MDE.CEENRF.[SDTM_CE]_MDE_1" Mandatory="No" OrderNumber="23" Role="Timing"/>
        <ItemRef ItemOID="IT.MDE.CESTRTPT.[SDTM_CE]_MDE_2" Mandatory="No" OrderNumber="24" Role="Timing"/>
        <ItemRef ItemOID="IT.MDE.CESTTPT.[SDTM_CE]_MDE_2" Mandatory="No" OrderNumber="25" Role="Timing"/>
        <ItemRef ItemOID="IT.MDE.CEENRTPT.[SDTM_CE]_MDE_2" Mandatory="No" OrderNumber="26" Role="Timing"/>
        <ItemRef ItemOID="IT.MDE.CEENTPT.[SDTM_CE]_MDE_1" Mandatory="No" OrderNumber="27" Role="Timing"/>
      </ItemGroupDef>
      <ItemGroupDef Domain="DS" Name="DS" OID="IG.MDES.DS.[SDTM]_MDES_3" Purpose="Tabulation" Repeating="Yes" def:Class="EVENTS" def:Structure="One record per disposition status or protocol milestone per subject">
        <Description>
          <TranslatedText xml:lang="en">Disposition</TranslatedText>
        </Description>
        <ItemRef ItemOID="IT.MDE.STUDYID.[SDTM_DS]_MDE_1" Mandatory="Yes" OrderNumber="1" Role="Identifier"/>
        <ItemRef ItemOID="IT.MDE.DOMAIN.[SDTM_DS]_MDE_1" Mandatory="Yes" OrderNumber="2" Role="Identifier"/>
        <ItemRef ItemOID="IT.MDE.USUBJID.[SDTM_DS]_MDE_1" Mandatory="Yes" OrderNumber="3" Role="Identifier"/>
        <ItemRef ItemOID="IT.MDE.DSSEQ.[SDTM_DS]_MDE_1" Mandatory="Yes" OrderNumber="4" Role="Identifier"/>
        <ItemRef ItemOID="IT.MDE.DSGRPID.[SDTM_DS]_MDE_1" Mandatory="No" OrderNumber="5" Role="Identifier"/>
        <ItemRef ItemOID="IT.MDE.DSREFID.[SDTM_DS]_MDE_1" Mandatory="No" OrderNumber="6" Role="Identifier"/>
        <ItemRef ItemOID="IT.MDE.DSSPID.[SDTM_DS]_MDE_2" Mandatory="No" OrderNumber="7" Role="Identifier"/>
        <ItemRef ItemOID="IT.MDE.DSTERM.[SDTM_DS]_MDE_2" Mandatory="Yes" OrderNumber="8" Role="Topic"/>
        <ItemRef ItemOID="IT.MDE.DSDECOD.[SDTM_DS]_MDE_1" Mandatory="Yes" OrderNumber="9" Role="Synonym Qualifier"/>
        <ItemRef ItemOID="IT.MDE.DSCAT.[SDTM_DS]_MDE_2" Mandatory="No" OrderNumber="10" Role="Grouping Qualifier"/>
        <ItemRef ItemOID="IT.MDE.DSSCAT.[SDTM_DS]_MDE_1" Mandatory="No" OrderNumber="11" Role="Grouping Qualifier"/>
        <ItemRef ItemOID="IT.MDE.EPOCH.[SDTM_DS]_MDE_2" Mandatory="No" OrderNumber="12" Role="Timing"/>
        <ItemRef ItemOID="IT.MDE.DSDTC.[SDTM_DS]_MDE_1" Mandatory="No" OrderNumber="13" Role="Timing"/>
        <ItemRef ItemOID="IT.MDE.DSSTDTC.[SDTM_DS]_MDE_1" Mandatory="No" OrderNumber="14" Role="Timing"/>
        <ItemRef ItemOID="IT.MDE.DSSTDY.[SDTM_DS]_MDE_1" Mandatory="No" OrderNumber="15" Role="Timing"/>
      </ItemGroupDef>
      <ItemGroupDef Domain="DV" Name="DV" OID="IG.MDES.DV.[SDTM]_MDES_3" Purpose="Tabulation" Repeating="Yes" def:Class="EVENTS" def:Structure="One record per protocol deviation per subject">
        <Description>
          <TranslatedText xml:lang="en">Protocol Deviations</TranslatedText>
        </Description>
        <ItemRef ItemOID="IT.MDE.STUDYID.[SDTM_DV]_MDE_1" Mandatory="Yes" OrderNumber="1" Role="Identifier"/>
        <ItemRef ItemOID="IT.MDE.DOMAIN.[SDTM_DV]_MDE_1" Mandatory="Yes" OrderNumber="2" Role="Identifier"/>
        <ItemRef ItemOID="IT.MDE.USUBJID.[SDTM_DV]_MDE_1" Mandatory="Yes" OrderNumber="3" Role="Identifier"/>
        <ItemRef ItemOID="IT.MDE.DVSEQ.[SDTM_DV]_MDE_1" Mandatory="Yes" OrderNumber="4" Role="Identifier"/>
        <ItemRef ItemOID="IT.MDE.DVREFID.[SDTM_DV]_MDE_1" Mandatory="No" OrderNumber="5" Role="Identifier"/>
        <ItemRef ItemOID="IT.MDE.DVSPID.[SDTM_DV]_MDE_2" Mandatory="No" OrderNumber="6" Role="Identifier"/>
        <ItemRef ItemOID="IT.MDE.DVDECOD.[SDTM_DV]_MDE_1" Mandatory="No" OrderNumber="8" Role="Synonym Qualifier"/>
        <ItemRef ItemOID="IT.MDE.DVCAT.[SDTM_DV]_MDE_1" Mandatory="No" OrderNumber="9" Role="Grouping Qualifier"/>
        <ItemRef ItemOID="IT.MDE.DVSCAT.[SDTM_DV]_MDE_1" Mandatory="No" OrderNumber="10" Role="Grouping Qualifier"/>
        <ItemRef ItemOID="IT.MDE.EPOCH.[SDTM_DV]_MDE_2" Mandatory="No" OrderNumber="11" Role="Timing"/>
        <ItemRef ItemOID="IT.MDE.DVSTDTC.[SDTM_DV]_MDE_1" Mandatory="No" OrderNumber="12" Role="Timing"/>
        <ItemRef ItemOID="IT.MDE.DVENDTC.[SDTM_DV]_MDE_1" Mandatory="No" OrderNumber="13" Role="Timing"/>
        <ItemRef ItemOID="IT.MDE.DVTERM.[SDTM_DV]_MDE_1" Mandatory="Yes" OrderNumber="7" Role="Topic"/>
      </ItemGroupDef>
      <ItemGroupDef Domain="HO" Name="HO" OID="IG.MDES.HO.[SDTM]_MDES_1" Purpose="Tabulation" Repeating="Yes" def:Class="EVENTS" def:Structure="One record per healthcare encounter per subject">
        <Description>
          <TranslatedText xml:lang="en">Healthcare Encounters</TranslatedText>
        </Description>
        <ItemRef ItemOID="IT.MDE.STUDYID.[SDTM_HO]_MDE_1" Mandatory="Yes" OrderNumber="1" Role="Identifier"/>
        <ItemRef ItemOID="IT.MDE.DOMAIN.[SDTM_HO]_MDE_1" Mandatory="Yes" OrderNumber="2" Role="Identifier"/>
        <ItemRef ItemOID="IT.MDE.USUBJID.[SDTM_HO]_MDE_1" Mandatory="Yes" OrderNumber="3" Role="Identifier"/>
        <ItemRef ItemOID="IT.MDE.HOSEQ.[SDTM_HO]_MDE_1" Mandatory="Yes" OrderNumber="4" Role="Identifier"/>
        <ItemRef ItemOID="IT.MDE.HOGRPID.[SDTM_HO]_MDE_1" Mandatory="No" OrderNumber="5" Role="Identifier"/>
        <ItemRef ItemOID="IT.MDE.HOREFID.[SDTM_HO]_MDE_1" Mandatory="No" OrderNumber="6" Role="Identifier"/>
        <ItemRef ItemOID="IT.MDE.HOSPID.[SDTM_HO]_MDE_1" Mandatory="No" OrderNumber="7" Role="Identifier"/>
        <ItemRef ItemOID="IT.MDE.HOTERM.[SDTM_HO]_MDE_1" Mandatory="Yes" OrderNumber="8" Role="Topic"/>
        <ItemRef ItemOID="IT.MDE.HODECOD.[SDTM_HO]_MDE_1" Mandatory="No" OrderNumber="9" Role="Synonym Qualifier"/>
        <ItemRef ItemOID="IT.MDE.HOCAT.[SDTM_HO]_MDE_1" Mandatory="No" OrderNumber="10" Role="Grouping Qualifier"/>
        <ItemRef ItemOID="IT.MDE.HOSCAT.[SDTM_HO]_MDE_1" Mandatory="No" OrderNumber="11" Role="Grouping Qualifier"/>
        <ItemRef ItemOID="IT.MDE.HOPRESP.[SDTM_HO]_MDE_1" Mandatory="No" OrderNumber="12" Role="Record Qualifier"/>
        <ItemRef ItemOID="IT.MDE.HOOCCUR.[SDTM_HO]_MDE_1" Mandatory="No" OrderNumber="13" Role="Record Qualifier"/>
        <ItemRef ItemOID="IT.MDE.HOSTAT.[SDTM_HO]_MDE_1" Mandatory="No" OrderNumber="14" Role="Record Qualifier"/>
        <ItemRef ItemOID="IT.MDE.HOREASND.[SDTM_HO]_MDE_1" Mandatory="No" OrderNumber="15" Role="Record Qualifier"/>
        <ItemRef ItemOID="IT.MDE.HODTC.[SDTM_HO]_MDE_1" Mandatory="No" OrderNumber="16" Role="Timing"/>
        <ItemRef ItemOID="IT.MDE.HOSTDTC.[SDTM_HO]_MDE_1" Mandatory="No" OrderNumber="17" Role="Timing"/>
        <ItemRef ItemOID="IT.MDE.HOENDTC.[SDTM_HO]_MDE_1" Mandatory="No" OrderNumber="18" Role="Timing"/>
        <ItemRef ItemOID="IT.MDE.HODY.[SDTM_HO]_MDE_1" Mandatory="No" OrderNumber="19" Role="Timing"/>
        <ItemRef ItemOID="IT.MDE.HOSTDY.[SDTM_HO]_MDE_1" Mandatory="No" OrderNumber="20" Role="Timing"/>
        <ItemRef ItemOID="IT.MDE.HOENDY.[SDTM_HO]_MDE_1" Mandatory="No" OrderNumber="21" Role="Timing"/>
        <ItemRef ItemOID="IT.MDE.HODUR.[SDTM_HO]_MDE_1" Mandatory="No" OrderNumber="22" Role="Timing"/>
        <ItemRef ItemOID="IT.MDE.HOSTRTPT.[SDTM_HO]_MDE_1" Mandatory="No" OrderNumber="23" Role="Timing"/>
        <ItemRef ItemOID="IT.MDE.HOSTTPT.[SDTM_HO]_MDE_1" Mandatory="No" OrderNumber="24" Role="Timing"/>
        <ItemRef ItemOID="IT.MDE.HOENRTPT.[SDTM_HO]_MDE_1" Mandatory="No" OrderNumber="25" Role="Timing"/>
        <ItemRef ItemOID="IT.MDE.HOENTPT.[SDTM_HO]_MDE_1" Mandatory="No" OrderNumber="26" Role="Timing"/>
      </ItemGroupDef>
      <ItemGroupDef Domain="MH" Name="MH" OID="IG.MDES.MH.[SDTM]_MDES_3" Purpose="Tabulation" Repeating="Yes" def:Class="EVENTS" def:Structure="One record per medical history event per subject">
        <Description>
          <TranslatedText xml:lang="en">Medical History</TranslatedText>
        </Description>
        <ItemRef ItemOID="IT.MDE.STUDYID.[SDTM_MH]_MDE_1" Mandatory="Yes" OrderNumber="1" Role="Identifier"/>
        <ItemRef ItemOID="IT.MDE.DOMAIN.[SDTM_MH]_MDE_1" Mandatory="Yes" OrderNumber="2" Role="Identifier"/>
        <ItemRef ItemOID="IT.MDE.USUBJID.[SDTM_MH]_MDE_1" Mandatory="Yes" OrderNumber="3" Role="Identifier"/>
        <ItemRef ItemOID="IT.MDE.MHSEQ.[SDTM_MH]_MDE_1" Mandatory="Yes" OrderNumber="4" Role="Identifier"/>
        <ItemRef ItemOID="IT.MDE.MHGRPID.[SDTM_MH]_MDE_1" Mandatory="No" OrderNumber="5" Role="Identifier"/>
        <ItemRef ItemOID="IT.MDE.MHREFID.[SDTM_MH]_MDE_1" Mandatory="No" OrderNumber="6" Role="Identifier"/>
        <ItemRef ItemOID="IT.MDE.MHSPID.[SDTM_MH]_MDE_2" Mandatory="No" OrderNumber="7" Role="Identifier"/>
        <ItemRef ItemOID="IT.MDE.MHTERM.[SDTM_MH]_MDE_1" Mandatory="Yes" OrderNumber="8" Role="Topic"/>
        <ItemRef ItemOID="IT.MDE.MHMODIFY.[SDTM_MH]_MDE_1" Mandatory="No" OrderNumber="9" Role="Synonym Qualifier"/>
        <ItemRef ItemOID="IT.MDE.MHDECOD.[SDTM_MH]_MDE_2" Mandatory="No" OrderNumber="10" Role="Synonym Qualifier"/>
        <ItemRef ItemOID="IT.MDE.MHCAT.[SDTM_MH]_MDE_1" Mandatory="No" OrderNumber="11" Role="Grouping Qualifier"/>
        <ItemRef ItemOID="IT.MDE.MHSCAT.[SDTM_MH]_MDE_1" Mandatory="No" OrderNumber="12" Role="Grouping Qualifier"/>
        <ItemRef ItemOID="IT.MDE.MHPRESP.[SDTM_MH]_MDE_2" Mandatory="No" OrderNumber="13" Role="Variable Qualifier of --TERM"/>
        <ItemRef ItemOID="IT.MDE.MHOCCUR.[SDTM_MH]_MDE_1" Mandatory="No" OrderNumber="14" Role="Record Qualifier"/>
        <ItemRef ItemOID="IT.MDE.MHSTAT.[SDTM_MH]_MDE_2" Mandatory="No" OrderNumber="15" Role="Record Qualifier"/>
        <ItemRef ItemOID="IT.MDE.MHREASND.[SDTM_MH]_MDE_2" Mandatory="No" OrderNumber="16" Role="Record Qualifier"/>
        <ItemRef ItemOID="IT.MDE.MHBODSYS.[SDTM_MH]_MDE_2" Mandatory="No" OrderNumber="17" Role="Record Qualifier"/>
        <ItemRef ItemOID="IT.MDE.MHDTC.[SDTM_MH]_MDE_1" Mandatory="No" OrderNumber="18" Role="Timing"/>
        <ItemRef ItemOID="IT.MDE.MHSTDTC.[SDTM_MH]_MDE_1" Mandatory="No" OrderNumber="19" Role="Timing"/>
        <ItemRef ItemOID="IT.MDE.MHENDTC.[SDTM_MH]_MDE_1" Mandatory="No" OrderNumber="20" Role="Timing"/>
        <ItemRef ItemOID="IT.MDE.MHDY.[SDTM_MH]_MDE_1" Mandatory="No" OrderNumber="21" Role="Timing"/>
        <ItemRef ItemOID="IT.MDE.MHENRF.[SDTM_MH]_MDE_1" Mandatory="No" OrderNumber="22" Role="Timing"/>
        <ItemRef ItemOID="IT.MDE.MHENRTPT.[SDTM_MH]_MDE_2" Mandatory="No" OrderNumber="23" Role="Timing"/>
        <ItemRef ItemOID="IT.MDE.MHENTPT.[SDTM_MH]_MDE_1" Mandatory="No" OrderNumber="24" Role="Timing"/>
      </ItemGroupDef>
      <ItemGroupDef Domain="CM" Name="CM" OID="IG.MDES.CM.[SDTM]_MDES_3" Purpose="Tabulation" Repeating="Yes" def:Class="INTERVENTIONS" def:Structure="One record per recorded intervention occurrence or constant-dosing interval per subject">
        <Description>
          <TranslatedText xml:lang="en">Concomitant and Prior Medications</TranslatedText>
        </Description>
        <ItemRef ItemOID="IT.MDE.STUDYID.[SDTM_CM]_MDE_1" Mandatory="Yes" OrderNumber="1" Role="Identifier"/>
        <ItemRef ItemOID="IT.MDE.DOMAIN.[SDTM_CM]_MDE_1" Mandatory="Yes" OrderNumber="2" Role="Identifier"/>
        <ItemRef ItemOID="IT.MDE.USUBJID.[SDTM_CM]_MDE_1" Mandatory="Yes" OrderNumber="3" Role="Identifier"/>
        <ItemRef ItemOID="IT.MDE.CMSEQ.[SDTM_CM]_MDE_1" Mandatory="Yes" OrderNumber="4" Role="Identifier"/>
        <ItemRef ItemOID="IT.MDE.CMGRPID.[SDTM_CM]_MDE_1" Mandatory="No" OrderNumber="5" Role="Identifier"/>
        <ItemRef ItemOID="IT.MDE.CMSPID.[SDTM_CM]_MDE_2" Mandatory="No" OrderNumber="6" Role="Identifier"/>
        <ItemRef ItemOID="IT.MDE.CMTRT.[SDTM_CM]_MDE_1" Mandatory="Yes" OrderNumber="7" Role="Topic"/>
        <ItemRef ItemOID="IT.MDE.CMMODIFY.[SDTM_CM]_MDE_1" Mandatory="No" OrderNumber="8" Role="Synonym Qualifier"/>
        <ItemRef ItemOID="IT.MDE.CMDECOD.[SDTM_CM]_MDE_1" Mandatory="No" OrderNumber="9" Role="Synonym Qualifier"/>
        <ItemRef ItemOID="IT.MDE.CMCAT.[SDTM_CM]_MDE_1" Mandatory="No" OrderNumber="10" Role="Grouping Qualifier"/>
        <ItemRef ItemOID="IT.MDE.CMSCAT.[SDTM_CM]_MDE_1" Mandatory="No" OrderNumber="11" Role="Grouping Qualifier"/>
        <ItemRef ItemOID="IT.MDE.CMPRESP.[SDTM_CM]_MDE_1" Mandatory="No" OrderNumber="12" Role="Variable Qualifier"/>
        <ItemRef ItemOID="IT.MDE.CMOCCUR.[SDTM_CM]_MDE_1" Mandatory="No" OrderNumber="13" Role="Record Qualifier"/>
        <ItemRef ItemOID="IT.MDE.CMSTAT.[SDTM_CM]_MDE_1" Mandatory="No" OrderNumber="14" Role="Record Qualifier"/>
        <ItemRef ItemOID="IT.MDE.CMREASND.[SDTM_CM]_MDE_1" Mandatory="No" OrderNumber="15" Role="Record Qualifier"/>
        <ItemRef ItemOID="IT.MDE.CMINDC.[SDTM_CM]_MDE_1" Mandatory="No" OrderNumber="16" Role="Record Qualifier"/>
        <ItemRef ItemOID="IT.MDE.CMCLAS.[SDTM_CM]_MDE_2" Mandatory="No" OrderNumber="17" Role="Variable Qualifier"/>
        <ItemRef ItemOID="IT.MDE.CMCLASCD.[SDTM_CM]_MDE_2" Mandatory="No" OrderNumber="18" Role="Variable Qualifier"/>
        <ItemRef ItemOID="IT.MDE.CMDOSE.[SDTM_CM]_MDE_2" Mandatory="No" OrderNumber="19" Role="Record Qualifier"/>
        <ItemRef ItemOID="IT.MDE.CMDOSTXT.[SDTM_CM]_MDE_2" Mandatory="No" OrderNumber="20" Role="Record Qualifier"/>
        <ItemRef ItemOID="IT.MDE.CMDOSU.[SDTM_CM]_MDE_2" Mandatory="No" OrderNumber="21" Role="Variable Qualifier"/>
        <ItemRef ItemOID="IT.MDE.CMDOSFRM.[SDTM_CM]_MDE_1" Mandatory="No" OrderNumber="22" Role="Variable Qualifier"/>
        <ItemRef ItemOID="IT.MDE.CMDOSFRQ.[SDTM_CM]_MDE_1" Mandatory="No" OrderNumber="23" Role="Variable Qualifier"/>
        <ItemRef ItemOID="IT.MDE.CMDOSTOT.[SDTM_CM]_MDE_2" Mandatory="No" OrderNumber="24" Role="Record Qualifier"/>
        <ItemRef ItemOID="IT.MDE.CMDOSRGM.[SDTM_CM]_MDE_1" Mandatory="No" OrderNumber="25" Role="Variable Qualifier"/>
        <ItemRef ItemOID="IT.MDE.CMROUTE.[SDTM_CM]_MDE_1" Mandatory="No" OrderNumber="26" Role="Variable Qualifier"/>
        <ItemRef ItemOID="IT.MDE.CMSTDTC.[SDTM_CM]_MDE_1" Mandatory="No" OrderNumber="27" Role="Timing"/>
        <ItemRef ItemOID="IT.MDE.CMENDTC.[SDTM_CM]_MDE_1" Mandatory="No" OrderNumber="28" Role="Timing"/>
        <ItemRef ItemOID="IT.MDE.CMSTDY.[SDTM_CM]_MDE_1" Mandatory="No" OrderNumber="29" Role="Timing"/>
        <ItemRef ItemOID="IT.MDE.CMENDY.[SDTM_CM]_MDE_1" Mandatory="No" OrderNumber="30" Role="Timing"/>
        <ItemRef ItemOID="IT.MDE.CMDUR.[SDTM_CM]_MDE_1" Mandatory="No" OrderNumber="31" Role="Timing"/>
        <ItemRef ItemOID="IT.MDE.CMSTRF.[SDTM_CM]_MDE_2" Mandatory="No" OrderNumber="32" Role="Timing"/>
        <ItemRef ItemOID="IT.MDE.CMENRF.[SDTM_CM]_MDE_2" Mandatory="No" OrderNumber="33" Role="Timing"/>
        <ItemRef ItemOID="IT.MDE.CMSTRTPT.[SDTM_CM]_MDE_2" Mandatory="No" OrderNumber="34" Role="Timing"/>
        <ItemRef ItemOID="IT.MDE.CMSTTPT.[SDTM_CM]_MDE_1" Mandatory="No" OrderNumber="35" Role="Timing"/>
        <ItemRef ItemOID="IT.MDE.CMENRTPT.[SDTM_CM]_MDE_2" Mandatory="No" OrderNumber="36" Role="Timing"/>
        <ItemRef ItemOID="IT.MDE.CMENTPT.[SDTM_CM]_MDE_1" Mandatory="No" OrderNumber="37" Role="Timing"/>
      </ItemGroupDef>
      <ItemGroupDef Domain="PR" Name="PR" OID="IG.MDES.PR.[SDTM]_MDES_1" Purpose="Tabulation" Repeating="Yes" def:Class="INTERVENTIONS" def:Structure="One record per recorded procedure per occurrence per subject">
        <Description>
          <TranslatedText xml:lang="en">Procedures</TranslatedText>
        </Description>
        <ItemRef ItemOID="IT.MDE.STUDYID.[SDTM_PR]_MDE_1" Mandatory="Yes" OrderNumber="1" Role="Identifier"/>
        <ItemRef ItemOID="IT.MDE.DOMAIN.[SDTM_PR]_MDE_1" Mandatory="Yes" OrderNumber="2" Role="Identifier"/>
        <ItemRef ItemOID="IT.MDE.USUBJID.[SDTM_PR]_MDE_1" Mandatory="Yes" OrderNumber="3" Role="Identifier"/>
        <ItemRef ItemOID="IT.MDE.PRSEQ.[SDTM_PR]_MDE_1" Mandatory="Yes" OrderNumber="4" Role="Identifier"/>
        <ItemRef ItemOID="IT.MDE.PRGRPID.[SDTM_PR]_MDE_1" Mandatory="No" OrderNumber="5" Role="Identifier"/>
        <ItemRef ItemOID="IT.MDE.PRSPID.[SDTM_PR]_MDE_1" Mandatory="No" OrderNumber="6" Role="Identifier"/>
        <ItemRef ItemOID="IT.MDE.PRLNKID.[SDTM_PR]_MDE_1" Mandatory="No" OrderNumber="7" Role="Identifier"/>
        <ItemRef ItemOID="IT.MDE.PRLNKGRP.[SDTM_PR]_MDE_1" Mandatory="No" OrderNumber="8" Role="Identifier"/>
        <ItemRef ItemOID="IT.MDE.PRTRT.[SDTM_PR]_MDE_1" Mandatory="Yes" OrderNumber="9" Role="Topic"/>
        <ItemRef ItemOID="IT.MDE.PRDECOD.[SDTM_PR]_MDE_1" Mandatory="No" OrderNumber="10" Role="Synonym Qualifier"/>
        <ItemRef ItemOID="IT.MDE.PRCAT.[SDTM_PR]_MDE_1" Mandatory="No" OrderNumber="11" Role="Grouping Qualifier"/>
        <ItemRef ItemOID="IT.MDE.PRSCAT.[SDTM_PR]_MDE_1" Mandatory="No" OrderNumber="12" Role="Grouping Qualifier"/>
        <ItemRef ItemOID="IT.MDE.PRPRESP.[SDTM_PR]_MDE_1" Mandatory="No" OrderNumber="13" Role="Record Qualifier"/>
        <ItemRef ItemOID="IT.MDE.PROCCUR.[SDTM_PR]_MDE_1" Mandatory="No" OrderNumber="14" Role="Record Qualifier"/>
        <ItemRef ItemOID="IT.MDE.PRINDC.[SDTM_PR]_MDE_1" Mandatory="No" OrderNumber="15" Role="Record Qualifier"/>
        <ItemRef ItemOID="IT.MDE.PRDOSE.[SDTM_PR]_MDE_1" Mandatory="No" OrderNumber="16" Role="Record Qualifier"/>
        <ItemRef ItemOID="IT.MDE.PRDOSTXT.[SDTM_PR]_MDE_1" Mandatory="No" OrderNumber="17" Role="Record Qualifier"/>
        <ItemRef ItemOID="IT.MDE.PRDOSU.[SDTM_PR]_MDE_1" Mandatory="No" OrderNumber="18" Role="Variable Qualifier"/>
        <ItemRef ItemOID="IT.MDE.PRDOSFRM.[SDTM_PR]_MDE_1" Mandatory="No" OrderNumber="19" Role="Variable Qualifier"/>
        <ItemRef ItemOID="IT.MDE.PRDOSFRQ.[SDTM_PR]_MDE_1" Mandatory="No" OrderNumber="20" Role="Variable Qualifier"/>
        <ItemRef ItemOID="IT.MDE.PRDOSRGM.[SDTM_PR]_MDE_1" Mandatory="No" OrderNumber="21" Role="Variable Qualifier"/>
        <ItemRef ItemOID="IT.MDE.PRROUTE.[SDTM_PR]_MDE_1" Mandatory="No" OrderNumber="22" Role="Variable Qualifier"/>
        <ItemRef ItemOID="IT.MDE.PRLOC.[SDTM_PR]_MDE_1" Mandatory="No" OrderNumber="23" Role="Record Qualifier"/>
        <ItemRef ItemOID="IT.MDE.PRLAT.[SDTM_PR]_MDE_1" Mandatory="No" OrderNumber="24" Role="Variable Qualifier"/>
        <ItemRef ItemOID="IT.MDE.PRDIR.[SDTM_PR]_MDE_1" Mandatory="No" OrderNumber="25" Role="Variable Qualifier"/>
        <ItemRef ItemOID="IT.MDE.PRPORTOT.[SDTM_PR]_MDE_1" Mandatory="No" OrderNumber="26" Role="Variable Qualifier"/>
        <ItemRef ItemOID="IT.MDE.VISITNUM.[SDTM_PR]_MDE_1" Mandatory="No" OrderNumber="27" Role="Timing"/>
        <ItemRef ItemOID="IT.MDE.VISIT.[SDTM_PR]_MDE_1" Mandatory="No" OrderNumber="28" Role="Timing"/>
        <ItemRef ItemOID="IT.MDE.VISITDY.[SDTM_PR]_MDE_1" Mandatory="No" OrderNumber="29" Role="Timing"/>
        <ItemRef ItemOID="IT.MDE.PRSTDTC.[SDTM_PR]_MDE_1" Mandatory="No" OrderNumber="30" Role="Timing"/>
        <ItemRef ItemOID="IT.MDE.PRENDTC.[SDTM_PR]_MDE_1" Mandatory="No" OrderNumber="31" Role="Timing"/>
        <ItemRef ItemOID="IT.MDE.PRSTDY.[SDTM_PR]_MDE_1" Mandatory="No" OrderNumber="32" Role="Timing"/>
        <ItemRef ItemOID="IT.MDE.PRENDY.[SDTM_PR]_MDE_1" Mandatory="No" OrderNumber="33" Role="Timing"/>
        <ItemRef ItemOID="IT.MDE.PRDUR.[SDTM_PR]_MDE_1" Mandatory="No" OrderNumber="34" Role="Timing"/>
        <ItemRef ItemOID="IT.MDE.PRTPT.[SDTM_PR]_MDE_1" Mandatory="No" OrderNumber="35" Role="Timing"/>
        <ItemRef ItemOID="IT.MDE.PRTPTNUM.[SDTM_PR]_MDE_1" Mandatory="No" OrderNumber="36" Role="Timing"/>
        <ItemRef ItemOID="IT.MDE.PRELTM.[SDTM_PR]_MDE_1" Mandatory="No" OrderNumber="37" Role="Timing"/>
        <ItemRef ItemOID="IT.MDE.PRTPTREF.[SDTM_PR]_MDE_1" Mandatory="No" OrderNumber="38" Role="Timing"/>
        <ItemRef ItemOID="IT.MDE.PRRFTDTC.[SDTM_PR]_MDE_1" Mandatory="No" OrderNumber="39" Role="Timing"/>
        <ItemRef ItemOID="IT.MDE.PRSTRTPT.[SDTM_PR]_MDE_1" Mandatory="No" OrderNumber="40" Role="Timing"/>
        <ItemRef ItemOID="IT.MDE.PRSTTPT.[SDTM_PR]_MDE_1" Mandatory="No" OrderNumber="41" Role="Timing"/>
        <ItemRef ItemOID="IT.MDE.PRENRTPT.[SDTM_PR]_MDE_1" Mandatory="No" OrderNumber="42" Role="Timing"/>
        <ItemRef ItemOID="IT.MDE.PRENTPT.[SDTM_PR]_MDE_1" Mandatory="No" OrderNumber="43" Role="Timing"/>
      </ItemGroupDef>
      <ItemGroupDef Domain="EX" Name="EX" OID="IG.MDES.EX.[SDTM]_MDES_3" Purpose="Tabulation" Repeating="Yes" def:Class="INTERVENTIONS" def:Structure="One record per protocol-specified study treatment, constant-dosing interval, per subject">
        <Description>
          <TranslatedText xml:lang="en">Exposure</TranslatedText>
        </Description>
        <ItemRef ItemOID="IT.MDE.STUDYID.[SDTM_EX]_MDE_1" Mandatory="Yes" OrderNumber="1" Role="Identifier"/>
        <ItemRef ItemOID="IT.MDE.DOMAIN.[SDTM_EX]_MDE_1" Mandatory="Yes" OrderNumber="2" Role="Identifier"/>
        <ItemRef ItemOID="IT.MDE.USUBJID.[SDTM_EX]_MDE_1" Mandatory="Yes" OrderNumber="3" Role="Identifier"/>
        <ItemRef ItemOID="IT.MDE.EXSEQ.[SDTM_EX]_MDE_1" Mandatory="Yes" OrderNumber="4" Role="Identifier"/>
        <ItemRef ItemOID="IT.MDE.EXGRPID.[SDTM_EX]_MDE_1" Mandatory="No" OrderNumber="5" Role="Identifier"/>
        <ItemRef ItemOID="IT.MDE.EXREFID.[SDTM_EX]_MDE_1" Mandatory="No" OrderNumber="6" Role="Identifier"/>
        <ItemRef ItemOID="IT.MDE.EXSPID.[SDTM_EX]_MDE_3" Mandatory="No" OrderNumber="7" Role="Identifier"/>
        <ItemRef ItemOID="IT.MDE.EXLNKID.[SDTM_EX]_MDE_1" Mandatory="No" OrderNumber="8" Role="Identifier"/>
        <ItemRef ItemOID="IT.MDE.EXLNKGRP.[SDTM_EX]_MDE_1" Mandatory="No" OrderNumber="9" Role="Identifier"/>
        <ItemRef ItemOID="IT.MDE.EXTRT.[SDTM_EX]_MDE_2" Mandatory="Yes" OrderNumber="10" Role="Topic"/>
        <ItemRef ItemOID="IT.MDE.EXCAT.[SDTM_EX]_MDE_2" Mandatory="No" OrderNumber="11" Role="Grouping Qualifier"/>
        <ItemRef ItemOID="IT.MDE.EXSCAT.[SDTM_EX]_MDE_2" Mandatory="No" OrderNumber="12" Role="Grouping Qualifier"/>
        <ItemRef ItemOID="IT.MDE.EXDOSE.[SDTM_EX]_MDE_2" Mandatory="No" OrderNumber="13" Role="Record Qualifier"/>
        <ItemRef ItemOID="IT.MDE.EXDOSTXT.[SDTM_EX]_MDE_2" Mandatory="No" OrderNumber="14" Role="Record Qualifier"/>
        <ItemRef ItemOID="IT.MDE.EXDOSU.[SDTM_EX]_MDE_2" Mandatory="No" OrderNumber="15" Role="Variable Qualifier"/>
        <ItemRef ItemOID="IT.MDE.EXDOSFRM.[SDTM_EX]_MDE_1" Mandatory="No" OrderNumber="16" Role="Variable Qualifier"/>
        <ItemRef ItemOID="IT.MDE.EXDOSFRQ.[SDTM_EX]_MDE_2" Mandatory="No" OrderNumber="17" Role="Variable Qualifier"/>
        <ItemRef ItemOID="IT.MDE.EXDOSRGM.[SDTM_EX]_MDE_2" Mandatory="No" OrderNumber="18" Role="Variable Qualifier"/>
        <ItemRef ItemOID="IT.MDE.EXROUTE.[SDTM_EX]_MDE_2" Mandatory="No" OrderNumber="19" Role="Variable Qualifier"/>
        <ItemRef ItemOID="IT.MDE.EXLOT.[SDTM_EX]_MDE_2" Mandatory="No" OrderNumber="20" Role="Record Qualifier"/>
        <ItemRef ItemOID="IT.MDE.EXLOC.[SDTM_EX]_MDE_2" Mandatory="No" OrderNumber="21" Role="Record Qualifier"/>
        <ItemRef ItemOID="IT.MDE.EXLAT.[SDTM_EX]_MDE_1" Mandatory="No" OrderNumber="22" Role="Variable Qualifier"/>
        <ItemRef ItemOID="IT.MDE.EXDIR.[SDTM_EX]_MDE_1" Mandatory="No" OrderNumber="23" Role="Variable Qualifier"/>
        <ItemRef ItemOID="IT.MDE.EXFAST.[SDTM_EX]_MDE_1" Mandatory="No" OrderNumber="24" Role="Record Qualifier"/>
        <ItemRef ItemOID="IT.MDE.EXADJ.[SDTM_EX]_MDE_2" Mandatory="No" OrderNumber="25" Role="Record Qualifier"/>
        <ItemRef ItemOID="IT.MDE.EPOCH.[SDTM_EX]_MDE_2" Mandatory="No" OrderNumber="26" Role="Timing"/>
        <ItemRef ItemOID="IT.MDE.EXSTDTC.[SDTM_EX]_MDE_2" Mandatory="No" OrderNumber="27" Role="Timing"/>
        <ItemRef ItemOID="IT.MDE.EXENDTC.[SDTM_EX]_MDE_2" Mandatory="No" OrderNumber="28" Role="Timing"/>
        <ItemRef ItemOID="IT.MDE.EXSTDY.[SDTM_EX]_MDE_2" Mandatory="No" OrderNumber="29" Role="Timing"/>
        <ItemRef ItemOID="IT.MDE.EXENDY.[SDTM_EX]_MDE_2" Mandatory="No" OrderNumber="30" Role="Timing"/>
        <ItemRef ItemOID="IT.MDE.EXDUR.[SDTM_EX]_MDE_2" Mandatory="No" OrderNumber="31" Role="Timing"/>
        <ItemRef ItemOID="IT.MDE.EXTPT.[SDTM_EX]_MDE_2" Mandatory="No" OrderNumber="32" Role="Timing"/>
        <ItemRef ItemOID="IT.MDE.EXTPTNUM.[SDTM_EX]_MDE_1" Mandatory="No" OrderNumber="33" Role="Timing"/>
        <ItemRef ItemOID="IT.MDE.EXELTM.[SDTM_EX]_MDE_2" Mandatory="No" OrderNumber="34" Role="Timing"/>
        <ItemRef ItemOID="IT.MDE.EXTPTREF.[SDTM_EX]_MDE_1" Mandatory="No" OrderNumber="35" Role="Timing"/>
        <ItemRef ItemOID="IT.MDE.EXRFTDTC.[SDTM_EX]_MDE_1" Mandatory="No" OrderNumber="36" Role="Timing"/>
      </ItemGroupDef>
      <ItemGroupDef Domain="EC" Name="EC" OID="IG.MDES.EC.[SDTM]_MDES_1" Purpose="Tabulation" Repeating="Yes" def:Class="INTERVENTIONS" def:Structure="One record per protocol-specified study treatment, collected-dosing interval, per subject, per mood">
        <Description>
          <TranslatedText xml:lang="en">Exposure as Collected</TranslatedText>
        </Description>
        <ItemRef ItemOID="IT.MDE.STUDYID.[SDTM_EC]_MDE_1" Mandatory="Yes" OrderNumber="1" Role="Identifier"/>
        <ItemRef ItemOID="IT.MDE.DOMAIN.[SDTM_EC]_MDE_1" Mandatory="Yes" OrderNumber="2" Role="Identifier"/>
        <ItemRef ItemOID="IT.MDE.USUBJID.[SDTM_EC]_MDE_1" Mandatory="Yes" OrderNumber="3" Role="Identifier"/>
        <ItemRef ItemOID="IT.MDE.ECSEQ.[SDTM_EC]_MDE_1" Mandatory="Yes" OrderNumber="4" Role="Identifier"/>
        <ItemRef ItemOID="IT.MDE.ECGRPID.[SDTM_EC]_MDE_1" Mandatory="No" OrderNumber="5" Role="Identifier"/>
        <ItemRef ItemOID="IT.MDE.ECREFID.[SDTM_EC]_MDE_1" Mandatory="No" OrderNumber="6" Role="Identifier"/>
        <ItemRef ItemOID="IT.MDE.ECSPID.[SDTM_EC]_MDE_1" Mandatory="No" OrderNumber="7" Role="Identifier"/>
        <ItemRef ItemOID="IT.MDE.ECLNKID.[SDTM_EC]_MDE_1" Mandatory="No" OrderNumber="8" Role="Identifier"/>
        <ItemRef ItemOID="IT.MDE.ECLNKGRP.[SDTM_EC]_MDE_1" Mandatory="No" OrderNumber="9" Role="Identifier"/>
        <ItemRef ItemOID="IT.MDE.ECTRT.[SDTM_EC]_MDE_1" Mandatory="Yes" OrderNumber="10" Role="Topic"/>
        <ItemRef ItemOID="IT.MDE.ECMOOD.[SDTM_EC]_MDE_1" Mandatory="No" OrderNumber="11" Role="Record Qualifier"/>
        <ItemRef ItemOID="IT.MDE.ECCAT.[SDTM_EC]_MDE_1" Mandatory="No" OrderNumber="12" Role="Grouping Qualifier"/>
        <ItemRef ItemOID="IT.MDE.ECSCAT.[SDTM_EC]_MDE_1" Mandatory="No" OrderNumber="13" Role="Grouping Qualifier"/>
        <ItemRef ItemOID="IT.MDE.ECPRESP.[SDTM_EC]_MDE_1" Mandatory="No" OrderNumber="14" Role="Record Qualifier"/>
        <ItemRef ItemOID="IT.MDE.ECOCCUR.[SDTM_EC]_MDE_1" Mandatory="No" OrderNumber="15" Role="Record Qualifier"/>
        <ItemRef ItemOID="IT.MDE.ECDOSE.[SDTM_EC]_MDE_1" Mandatory="No" OrderNumber="16" Role="Record Qualifier"/>
        <ItemRef ItemOID="IT.MDE.ECDOSTXT.[SDTM_EC]_MDE_1" Mandatory="No" OrderNumber="17" Role="Record Qualifier"/>
        <ItemRef ItemOID="IT.MDE.ECDOSU.[SDTM_EC]_MDE_1" Mandatory="No" OrderNumber="18" Role="Variable Qualifier"/>
        <ItemRef ItemOID="IT.MDE.ECDOSFRM.[SDTM_EC]_MDE_1" Mandatory="No" OrderNumber="19" Role="Variable Qualifier"/>
        <ItemRef ItemOID="IT.MDE.ECDOSFRQ.[SDTM_EC]_MDE_1" Mandatory="No" OrderNumber="20" Role="Variable Qualifier"/>
        <ItemRef ItemOID="IT.MDE.ECDOSTOT.[SDTM_EC]_MDE_1" Mandatory="No" OrderNumber="21" Role="Record Qualifier"/>
        <ItemRef ItemOID="IT.MDE.ECDOSRGM.[SDTM_EC]_MDE_1" Mandatory="No" OrderNumber="22" Role="Variable Qualifier"/>
        <ItemRef ItemOID="IT.MDE.ECROUTE.[SDTM_EC]_MDE_1" Mandatory="No" OrderNumber="23" Role="Variable Qualifier"/>
        <ItemRef ItemOID="IT.MDE.ECLOT.[SDTM_EC]_MDE_1" Mandatory="No" OrderNumber="24" Role="Record Qualifier"/>
        <ItemRef ItemOID="IT.MDE.ECLOC.[SDTM_EC]_MDE_1" Mandatory="No" OrderNumber="25" Role="Record Qualifier"/>
        <ItemRef ItemOID="IT.MDE.ECLAT.[SDTM_EC]_MDE_1" Mandatory="No" OrderNumber="26" Role="Record Qualifier"/>
        <ItemRef ItemOID="IT.MDE.ECDIR.[SDTM_EC]_MDE_1" Mandatory="No" OrderNumber="27" Role="Variable Qualifier"/>
        <ItemRef ItemOID="IT.MDE.ECPORTOT.[SDTM_EC]_MDE_1" Mandatory="No" OrderNumber="28" Role="Variable Qualifier"/>
        <ItemRef ItemOID="IT.MDE.ECFAST.[SDTM_EC]_MDE_1" Mandatory="No" OrderNumber="29" Role="Record Qualifier"/>
        <ItemRef ItemOID="IT.MDE.ECPSTRG.[SDTM_EC]_MDE_1" Mandatory="No" OrderNumber="30" Role="Variable Qualifier"/>
        <ItemRef ItemOID="IT.MDE.ECPSTRGU.[SDTM_EC]_MDE_1" Mandatory="No" OrderNumber="31" Role="Variable Qualifier"/>
        <ItemRef ItemOID="IT.MDE.ECADJ.[SDTM_EC]_MDE_1" Mandatory="No" OrderNumber="32" Role="Record Qualifier"/>
        <ItemRef ItemOID="IT.MDE.EPOCH.[SDTM_EC]_MDE_1" Mandatory="No" OrderNumber="33" Role="Timing"/>
        <ItemRef ItemOID="IT.MDE.ECSTDTC.[SDTM_EC]_MDE_1" Mandatory="No" OrderNumber="34" Role="Timing"/>
        <ItemRef ItemOID="IT.MDE.ECENDTC.[SDTM_EC]_MDE_1" Mandatory="No" OrderNumber="35" Role="Timing"/>
        <ItemRef ItemOID="IT.MDE.ECSTDY.[SDTM_EC]_MDE_1" Mandatory="No" OrderNumber="36" Role="Timing"/>
        <ItemRef ItemOID="IT.MDE.ECENDY.[SDTM_EC]_MDE_1" Mandatory="No" OrderNumber="37" Role="Timing"/>
        <ItemRef ItemOID="IT.MDE.ECDUR.[SDTM_EC]_MDE_1" Mandatory="No" OrderNumber="38" Role="Timing"/>
        <ItemRef ItemOID="IT.MDE.ECTPT.[SDTM_EC]_MDE_1" Mandatory="No" OrderNumber="39" Role="Timing"/>
        <ItemRef ItemOID="IT.MDE.ECTPTNUM.[SDTM_EC]_MDE_1" Mandatory="No" OrderNumber="40" Role="Timing"/>
        <ItemRef ItemOID="IT.MDE.ECELTM.[SDTM_EC]_MDE_1" Mandatory="No" OrderNumber="41" Role="Timing"/>
        <ItemRef ItemOID="IT.MDE.ECTPTREF.[SDTM_EC]_MDE_1" Mandatory="No" OrderNumber="42" Role="Timing"/>
        <ItemRef ItemOID="IT.MDE.ECRFTDTC.[SDTM_EC]_MDE_1" Mandatory="No" OrderNumber="43" Role="Timing"/>
      </ItemGroupDef>
      <ItemGroupDef Domain="SU" Name="SU" OID="IG.MDES.SU.[SDTM]_MDES_3" Purpose="Tabulation" Repeating="Yes" def:Class="INTERVENTIONS" def:Structure="One record per substance type per reported occurrence per subject">
        <Description>
          <TranslatedText xml:lang="en">Substance Use</TranslatedText>
        </Description>
        <ItemRef ItemOID="IT.MDE.STUDYID.[SDTM_SU]_MDE_1" Mandatory="Yes" OrderNumber="1" Role="Identifier"/>
        <ItemRef ItemOID="IT.MDE.DOMAIN.[SDTM_SU]_MDE_1" Mandatory="Yes" OrderNumber="2" Role="Identifier"/>
        <ItemRef ItemOID="IT.MDE.USUBJID.[SDTM_SU]_MDE_1" Mandatory="Yes" OrderNumber="3" Role="Identifier"/>
        <ItemRef ItemOID="IT.MDE.SUSEQ.[SDTM_SU]_MDE_1" Mandatory="Yes" OrderNumber="4" Role="Identifier"/>
        <ItemRef ItemOID="IT.MDE.SUGRPID.[SDTM_SU]_MDE_1" Mandatory="No" OrderNumber="5" Role="Identifier"/>
        <ItemRef ItemOID="IT.MDE.SUSPID.[SDTM_SU]_MDE_2" Mandatory="No" OrderNumber="6" Role="Identifier"/>
        <ItemRef ItemOID="IT.MDE.SUTRT.[SDTM_SU]_MDE_1" Mandatory="Yes" OrderNumber="7" Role="Topic"/>
        <ItemRef ItemOID="IT.MDE.SUMODIFY.[SDTM_SU]_MDE_1" Mandatory="No" OrderNumber="8" Role="Synonym Qualifier"/>
        <ItemRef ItemOID="IT.MDE.SUDECOD.[SDTM_SU]_MDE_1" Mandatory="No" OrderNumber="9" Role="Synonym Qualifier"/>
        <ItemRef ItemOID="IT.MDE.SUCAT.[SDTM_SU]_MDE_1" Mandatory="No" OrderNumber="10" Role="Grouping Qualifier"/>
        <ItemRef ItemOID="IT.MDE.SUSCAT.[SDTM_SU]_MDE_1" Mandatory="No" OrderNumber="11" Role="Grouping Qualifier"/>
        <ItemRef ItemOID="IT.MDE.SUPRESP.[SDTM_SU]_MDE_1" Mandatory="No" OrderNumber="12" Role="Variable Qualifier"/>
        <ItemRef ItemOID="IT.MDE.SUOCCUR.[SDTM_SU]_MDE_1" Mandatory="No" OrderNumber="13" Role="Record Qualifier"/>
        <ItemRef ItemOID="IT.MDE.SUSTAT.[SDTM_SU]_MDE_1" Mandatory="No" OrderNumber="14" Role="Record Qualifier"/>
        <ItemRef ItemOID="IT.MDE.SUREASND.[SDTM_SU]_MDE_1" Mandatory="No" OrderNumber="15" Role="Record Qualifier"/>
        <ItemRef ItemOID="IT.MDE.SUCLAS.[SDTM_SU]_MDE_3" Mandatory="No" OrderNumber="16" Role="Variable Qualifier"/>
        <ItemRef ItemOID="IT.MDE.SUCLASCD.[SDTM_SU]_MDE_1" Mandatory="No" OrderNumber="17" Role="Variable Qualifier"/>
        <ItemRef ItemOID="IT.MDE.SUDOSE.[SDTM_SU]_MDE_2" Mandatory="No" OrderNumber="18" Role="Record Qualifier"/>
        <ItemRef ItemOID="IT.MDE.SUDOSTXT.[SDTM_SU]_MDE_2" Mandatory="No" OrderNumber="19" Role="Record Qualifier"/>
        <ItemRef ItemOID="IT.MDE.SUDOSU.[SDTM_SU]_MDE_2" Mandatory="No" OrderNumber="20" Role="Variable Qualifier"/>
        <ItemRef ItemOID="IT.MDE.SUDOSFRM.[SDTM_SU]_MDE_1" Mandatory="No" OrderNumber="21" Role="Variable Qualifier"/>
        <ItemRef ItemOID="IT.MDE.SUDOSFRQ.[SDTM_SU]_MDE_1" Mandatory="No" OrderNumber="22" Role="Variable Qualifier"/>
        <ItemRef ItemOID="IT.MDE.SUDOSTOT.[SDTM_SU]_MDE_2" Mandatory="No" OrderNumber="23" Role="Record Qualifier"/>
        <ItemRef ItemOID="IT.MDE.SUROUTE.[SDTM_SU]_MDE_1" Mandatory="No" OrderNumber="24" Role="Variable Qualifier"/>
        <ItemRef ItemOID="IT.MDE.SUSTDTC.[SDTM_SU]_MDE_1" Mandatory="No" OrderNumber="25" Role="Timing"/>
        <ItemRef ItemOID="IT.MDE.SUENDTC.[SDTM_SU]_MDE_1" Mandatory="No" OrderNumber="26" Role="Timing"/>
        <ItemRef ItemOID="IT.MDE.SUSTDY.[SDTM_SU]_MDE_1" Mandatory="No" OrderNumber="27" Role="Timing"/>
        <ItemRef ItemOID="IT.MDE.SUENDY.[SDTM_SU]_MDE_1" Mandatory="No" OrderNumber="28" Role="Timing"/>
        <ItemRef ItemOID="IT.MDE.SUDUR.[SDTM_SU]_MDE_1" Mandatory="No" OrderNumber="29" Role="Timing"/>
        <ItemRef ItemOID="IT.MDE.SUSTRF.[SDTM_SU]_MDE_1" Mandatory="No" OrderNumber="30" Role="Timing"/>
        <ItemRef ItemOID="IT.MDE.SUENRF.[SDTM_SU]_MDE_1" Mandatory="No" OrderNumber="31" Role="Timing"/>
        <ItemRef ItemOID="IT.MDE.SUSTRTPT.[SDTM_SU]_MDE_3" Mandatory="No" OrderNumber="32" Role="Timing"/>
        <ItemRef ItemOID="IT.MDE.SUSTTPT.[SDTM_SU]_MDE_1" Mandatory="No" OrderNumber="33" Role="Timing"/>
        <ItemRef ItemOID="IT.MDE.SUENRTPT.[SDTM_SU]_MDE_3" Mandatory="No" OrderNumber="34" Role="Timing"/>
        <ItemRef ItemOID="IT.MDE.SUENTPT.[SDTM_SU]_MDE_1" Mandatory="No" OrderNumber="35" Role="Timing"/>
      </ItemGroupDef>
      <ItemGroupDef Domain="TA" Name="TA" OID="IG.MDES.TA.[SDTM]_MDES_3" Purpose="Tabulation" Repeating="No" def:Class="TRIAL DESIGN" def:Structure="One record per planned Element per Arm">
        <Description>
          <TranslatedText xml:lang="en">Trial Arms</TranslatedText>
        </Description>
        <ItemRef ItemOID="IT.MDE.STUDYID.[SDTM_TA]_MDE_1" Mandatory="Yes" OrderNumber="1" Role="Identifier"/>
        <ItemRef ItemOID="IT.MDE.DOMAIN.[SDTM_TA]_MDE_1" Mandatory="Yes" OrderNumber="2" Role="Identifier"/>
        <ItemRef ItemOID="IT.MDE.ARMCD.[SDTM_TA]_MDE_2" Mandatory="Yes" OrderNumber="3" Role="Topic"/>
        <ItemRef ItemOID="IT.MDE.ARM.[SDTM_TA]_MDE_1" Mandatory="Yes" OrderNumber="4" Role="Synonym Qualifier"/>
        <ItemRef ItemOID="IT.MDE.TAETORD.[SDTM_TA]_MDE_1" Mandatory="Yes" OrderNumber="5" Role="Timing"/>
        <ItemRef ItemOID="IT.MDE.ETCD.[SDTM_TA]_MDE_1" Mandatory="Yes" OrderNumber="6" Role="Record Qualifier"/>
        <ItemRef ItemOID="IT.MDE.ELEMENT.[SDTM_TA]_MDE_1" Mandatory="No" OrderNumber="7" Role="Synonym Qualifier"/>
        <ItemRef ItemOID="IT.MDE.TABRANCH.[SDTM_TA]_MDE_2" Mandatory="No" OrderNumber="8" Role="Rule"/>
        <ItemRef ItemOID="IT.MDE.TATRANS.[SDTM_TA]_MDE_1" Mandatory="No" OrderNumber="9" Role="Rule"/>
        <ItemRef ItemOID="IT.MDE.EPOCH.[SDTM_TA]_MDE_2" Mandatory="Yes" OrderNumber="10" Role="Timing"/>
      </ItemGroupDef>
      <ItemGroupDef Domain="TE" Name="TE" OID="IG.MDES.TE.[SDTM]_MDES_3" Purpose="Tabulation" Repeating="No" def:Class="TRIAL DESIGN" def:Structure="One record per planned Element">
        <Description>
          <TranslatedText xml:lang="en">Trial Elements</TranslatedText>
        </Description>
        <ItemRef ItemOID="IT.MDE.STUDYID.[SDTM_TE]_MDE_1" Mandatory="Yes" OrderNumber="1" Role="Identifier"/>
        <ItemRef ItemOID="IT.MDE.DOMAIN.[SDTM_TE]_MDE_1" Mandatory="Yes" OrderNumber="2" Role="Identifier"/>
        <ItemRef ItemOID="IT.MDE.ETCD.[SDTM_TE]_MDE_1" Mandatory="Yes" OrderNumber="3" Role="Topic"/>
        <ItemRef ItemOID="IT.MDE.ELEMENT.[SDTM_TE]_MDE_1" Mandatory="Yes" OrderNumber="4" Role="Synonym Qualifier"/>
        <ItemRef ItemOID="IT.MDE.TESTRL.[SDTM_TE]_MDE_1" Mandatory="Yes" OrderNumber="5" Role="Rule"/>
        <ItemRef ItemOID="IT.MDE.TEENRL.[SDTM_TE]_MDE_1" Mandatory="No" OrderNumber="6" Role="Rule"/>
        <ItemRef ItemOID="IT.MDE.TEDUR.[SDTM_TE]_MDE_1" Mandatory="No" OrderNumber="7" Role="Timing"/>
      </ItemGroupDef>
      <ItemGroupDef Domain="TV" Name="TV" OID="IG.MDES.TV.[SDTM]_MDES_3" Purpose="Tabulation" Repeating="No" def:Class="TRIAL DESIGN" def:Structure="One record per planned Visit per Arm">
        <Description>
          <TranslatedText xml:lang="en">Trial Visits</TranslatedText>
        </Description>
        <ItemRef ItemOID="IT.MDE.STUDYID.[SDTM_TV]_MDE_1" Mandatory="Yes" OrderNumber="1" Role="Identifier"/>
        <ItemRef ItemOID="IT.MDE.DOMAIN.[SDTM_TV]_MDE_1" Mandatory="Yes" OrderNumber="2" Role="Identifier"/>
        <ItemRef ItemOID="IT.MDE.VISITNUM.[SDTM_TV]_MDE_1" Mandatory="Yes" OrderNumber="3" Role="Topic"/>
        <ItemRef ItemOID="IT.MDE.VISIT.[SDTM_TV]_MDE_2" Mandatory="No" OrderNumber="4" Role="Synonym Qualifier"/>
        <ItemRef ItemOID="IT.MDE.VISITDY.[SDTM_TV]_MDE_2" Mandatory="No" OrderNumber="5" Role="Timing"/>
        <ItemRef ItemOID="IT.MDE.ARMCD.[SDTM_TV]_MDE_2" Mandatory="No" OrderNumber="6" Role="Record Qualifier"/>
        <ItemRef ItemOID="IT.MDE.ARM.[SDTM_TV]_MDE_2" Mandatory="No" OrderNumber="7" Role="Synonym Qualifier"/>
        <ItemRef ItemOID="IT.MDE.TVSTRL.[SDTM_TV]_MDE_1" Mandatory="Yes" OrderNumber="8" Role="Rule"/>
        <ItemRef ItemOID="IT.MDE.TVENRL.[SDTM_TV]_MDE_1" Mandatory="No" OrderNumber="9" Role="Rule"/>
      </ItemGroupDef>
      <ItemGroupDef Domain="TD" Name="TD" OID="IG.MDES.TD.[SDTM]_MDES_1" Purpose="Tabulation" Repeating="No" def:Class="TRIAL DESIGN" def:Structure="One record per planned constant assessment period">
        <Description>
          <TranslatedText xml:lang="en">Trial Disease Assessments</TranslatedText>
        </Description>
        <ItemRef ItemOID="IT.MDE.STUDYID.[SDTM_TD]_MDE_1" Mandatory="Yes" OrderNumber="1" Role="Identifier"/>
        <ItemRef ItemOID="IT.MDE.DOMAIN.[SDTM_TD]_MDE_1" Mandatory="Yes" OrderNumber="2" Role="Identifier"/>
        <ItemRef ItemOID="IT.MDE.TDORDER.[SDTM_TD]_MDE_1" Mandatory="Yes" OrderNumber="3" Role="Timing"/>
        <ItemRef ItemOID="IT.MDE.TDANCVAR.[SDTM_TD]_MDE_1" Mandatory="Yes" OrderNumber="4" Role="Timing"/>
        <ItemRef ItemOID="IT.MDE.TDSTOFF.[SDTM_TD]_MDE_1" Mandatory="Yes" OrderNumber="5" Role="Timing"/>
        <ItemRef ItemOID="IT.MDE.TDTGTPAI.[SDTM_TD]_MDE_1" Mandatory="Yes" OrderNumber="6" Role="Timing"/>
        <ItemRef ItemOID="IT.MDE.TDMINPAI.[SDTM_TD]_MDE_1" Mandatory="Yes" OrderNumber="7" Role="Timing"/>
        <ItemRef ItemOID="IT.MDE.TDMAXPAI.[SDTM_TD]_MDE_1" Mandatory="Yes" OrderNumber="8" Role="Timing"/>
        <ItemRef ItemOID="IT.MDE.TDNUMRPT.[SDTM_TD]_MDE_1" Mandatory="Yes" OrderNumber="9" Role="Record Qualifier"/>
      </ItemGroupDef>
      <ItemGroupDef Domain="TI" Name="TI" OID="IG.MDES.TI.[SDTM]_MDES_3" Purpose="Tabulation" Repeating="No" def:Class="TRIAL DESIGN" def:Structure="One record per I/E criterion">
        <Description>
          <TranslatedText xml:lang="en">Trial Inclusion/Exclusion Criteria</TranslatedText>
        </Description>
        <ItemRef ItemOID="IT.MDE.STUDYID.[SDTM_TI]_MDE_1" Mandatory="Yes" OrderNumber="1" Role="Identifier"/>
        <ItemRef ItemOID="IT.MDE.DOMAIN.[SDTM_TI]_MDE_1" Mandatory="Yes" OrderNumber="2" Role="Identifier"/>
        <ItemRef ItemOID="IT.MDE.IETESTCD.[SDTM_TI]_MDE_2" Mandatory="Yes" OrderNumber="3" Role="Topic"/>
        <ItemRef ItemOID="IT.MDE.IETEST.[SDTM_TI]_MDE_2" Mandatory="Yes" OrderNumber="4" Role="Synonym Qualifier"/>
        <ItemRef ItemOID="IT.MDE.IECAT.[SDTM_TI]_MDE_1" Mandatory="Yes" OrderNumber="5" Role="Grouping Qualifier"/>
        <ItemRef ItemOID="IT.MDE.IESCAT.[SDTM_TI]_MDE_1" Mandatory="No" OrderNumber="6" Role="Grouping Qualifier"/>
        <ItemRef ItemOID="IT.MDE.TIRL.[SDTM_TI]_MDE_1" Mandatory="No" OrderNumber="7" Role="Rule"/>
        <ItemRef ItemOID="IT.MDE.TIVERS.[SDTM_TI]_MDE_1" Mandatory="No" OrderNumber="8" Role="Record Qualifier"/>
      </ItemGroupDef>
      <ItemGroupDef Domain="TS" Name="TS" OID="IG.MDES.TS.[SDTM]_MDES_3" Purpose="Tabulation" Repeating="No" def:Class="TRIAL DESIGN" def:Structure="One record per trial summary parameter value">
        <Description>
          <TranslatedText xml:lang="en">Trial Summary Information</TranslatedText>
        </Description>
        <ItemRef ItemOID="IT.MDE.STUDYID.[SDTM_TS]_MDE_1" Mandatory="Yes" OrderNumber="1" Role="Identifier"/>
        <ItemRef ItemOID="IT.MDE.DOMAIN.[SDTM_TS]_MDE_1" Mandatory="Yes" OrderNumber="2" Role="Identifier"/>
        <ItemRef ItemOID="IT.MDE.TSSEQ.[SDTM_TS]_MDE_1" Mandatory="Yes" OrderNumber="3" Role="Identifier"/>
        <ItemRef ItemOID="IT.MDE.TSGRPID.[SDTM_TS]_MDE_1" Mandatory="No" OrderNumber="4" Role="Identifier"/>
        <ItemRef ItemOID="IT.MDE.TSPARMCD.[SDTM_TS]_MDE_1" Mandatory="Yes" OrderNumber="5" Role="Topic"/>
        <ItemRef ItemOID="IT.MDE.TSPARM.[SDTM_TS]_MDE_1" Mandatory="Yes" OrderNumber="6" Role="Synonym Qualifier"/>
        <ItemRef ItemOID="IT.MDE.TSVAL.[SDTM_TS]_MDE_3" Mandatory="No" OrderNumber="7" Role="Result Qualifier"/>
        <ItemRef ItemOID="IT.MDE.TSVALNF.[SDTM_TS]_MDE_1" Mandatory="No" OrderNumber="8" Role="Result Qualifier"/>
        <ItemRef ItemOID="IT.MDE.TSVALCD.[SDTM_TS]_MDE_1" Mandatory="No" OrderNumber="9" Role="Result Qualifier"/>
        <ItemRef ItemOID="IT.MDE.TSVCDREF.[SDTM_TS]_MDE_1" Mandatory="No" OrderNumber="10" Role="Result Qualifier"/>
        <ItemRef ItemOID="IT.MDE.TSVCDVER.[SDTM_TS]_MDE_1" Mandatory="No" OrderNumber="11" Role="Result Qualifier"/>
      </ItemGroupDef>
      <ItemGroupDef Domain="TX" Name="TX" OID="IG.MDES.TX.[SDTM]_MDES_2" Purpose="Tabulation" Repeating="No" def:Class="TRIAL DESIGN" def:Structure="One Record per Trial Set Parameter">
        <Description>
          <TranslatedText xml:lang="en">Trial Sets</TranslatedText>
        </Description>
        <ItemRef ItemOID="IT.MDE.STUDYID.[SDTM_TX]_MDE_1" Mandatory="No" OrderNumber="1"/>
        <ItemRef ItemOID="IT.MDE.DOMAIN.[SDTM_TX]_MDE_1" Mandatory="No" OrderNumber="2"/>
        <ItemRef ItemOID="IT.MDE.SETCD.[SDTM_TX]_MDE_1" Mandatory="No" OrderNumber="3"/>
        <ItemRef ItemOID="IT.MDE.SET.[SDTM_TX]_MDE_1" Mandatory="No" OrderNumber="4"/>
        <ItemRef ItemOID="IT.MDE.TXSEQ.[SDTM_TX]_MDE_2" Mandatory="No" OrderNumber="5"/>
        <ItemRef ItemOID="IT.MDE.TXPARMCD.[SDTM_TX]_MDE_1" Mandatory="No" OrderNumber="6"/>
        <ItemRef ItemOID="IT.MDE.TXPARM.[SDTM_TX]_MDE_1" Mandatory="No" OrderNumber="7"/>
        <ItemRef ItemOID="IT.MDE.TXVAL.[SDTM_TX]_MDE_2" Mandatory="No" OrderNumber="8"/>
      </ItemGroupDef>
      <ItemGroupDef Domain="CO" Name="CO" OID="IG.MDES.CO.[SDTM]_MDES_3" Purpose="Tabulation" Repeating="Yes" def:Class="SPECIAL PURPOSE" def:Structure="One record per comment per subject">
        <Description>
          <TranslatedText xml:lang="en">Comments</TranslatedText>
        </Description>
        <ItemRef ItemOID="IT.MDE.STUDYID.[SDTM_CO]_MDE_1" Mandatory="Yes" OrderNumber="1" Role="Identifier"/>
        <ItemRef ItemOID="IT.MDE.DOMAIN.[SDTM_CO]_MDE_1" Mandatory="Yes" OrderNumber="2" Role="Identifier"/>
        <ItemRef ItemOID="IT.MDE.RDOMAIN.[SDTM_CO]_MDE_1" Mandatory="No" OrderNumber="3" Role="Record Qualifier"/>
        <ItemRef ItemOID="IT.MDE.USUBJID.[SDTM_CO]_MDE_1" Mandatory="Yes" OrderNumber="4" Role="Identifier"/>
        <ItemRef ItemOID="IT.MDE.COSEQ.[SDTM_CO]_MDE_1" Mandatory="Yes" OrderNumber="5" Role="Identifier"/>
        <ItemRef ItemOID="IT.MDE.IDVAR.[SDTM_CO]_MDE_1" Mandatory="No" OrderNumber="6" Role="Record Qualifier"/>
        <ItemRef ItemOID="IT.MDE.IDVARVAL.[SDTM_CO]_MDE_1" Mandatory="No" OrderNumber="7" Role="Record Qualifier"/>
        <ItemRef ItemOID="IT.MDE.COREF.[SDTM_CO]_MDE_1" Mandatory="No" OrderNumber="8" Role="Record Qualifier"/>
        <ItemRef ItemOID="IT.MDE.COVAL.[SDTM_CO]_MDE_2" Mandatory="Yes" OrderNumber="9" Role="Topic"/>
        <ItemRef ItemOID="IT.MDE.COEVAL.[SDTM_CO]_MDE_1" Mandatory="No" OrderNumber="10" Role="Record Qualifier"/>
        <ItemRef ItemOID="IT.MDE.CODTC.[SDTM_CO]_MDE_1" Mandatory="No" OrderNumber="11" Role="Timing"/>
      </ItemGroupDef>
      <ItemGroupDef Domain="DM" Name="DM" OID="IG.MDES.DM.[SDTM]_MDES_3" Purpose="Tabulation" Repeating="No" def:Class="SPECIAL PURPOSE" def:Structure="One record per subject">
        <Description>
          <TranslatedText xml:lang="en">Demographics</TranslatedText>
        </Description>
        <ItemRef ItemOID="IT.MDE.STUDYID.[SDTM_DM]_MDE_1" Mandatory="Yes" OrderNumber="1" Role="Identifier"/>
        <ItemRef ItemOID="IT.MDE.DOMAIN.[SDTM_DM]_MDE_1" Mandatory="Yes" OrderNumber="2" Role="Identifier"/>
        <ItemRef ItemOID="IT.MDE.USUBJID.[SDTM_DM]_MDE_1" Mandatory="Yes" OrderNumber="3" Role="Identifier"/>
        <ItemRef ItemOID="IT.MDE.SUBJID.[SDTM_DM]_MDE_1" Mandatory="Yes" OrderNumber="4" Role="Topic"/>
        <ItemRef ItemOID="IT.MDE.RFSTDTC.[SDTM_DM]_MDE_1" Mandatory="No" OrderNumber="5" Role="Record Qualifier"/>
        <ItemRef ItemOID="IT.MDE.RFENDTC.[SDTM_DM]_MDE_1" Mandatory="No" OrderNumber="6" Role="Record Qualifier"/>
        <ItemRef ItemOID="IT.MDE.RFXSTDTC.[SDTM_DM]_MDE_1" Mandatory="No" OrderNumber="7" Role="Record Qualifier"/>
        <ItemRef ItemOID="IT.MDE.RFXENDTC.[SDTM_DM]_MDE_1" Mandatory="No" OrderNumber="8" Role="Record Qualifier"/>
        <ItemRef ItemOID="IT.MDE.RFICDTC.[SDTM_DM]_MDE_1" Mandatory="No" OrderNumber="9" Role="Record Qualifier"/>
        <ItemRef ItemOID="IT.MDE.RFPENDTC.[SDTM_DM]_MDE_1" Mandatory="No" OrderNumber="10" Role="Record Qualifier"/>
        <ItemRef ItemOID="IT.MDE.DTHDTC.[SDTM_DM]_MDE_1" Mandatory="No" OrderNumber="11" Role="Record Qualifier"/>
        <ItemRef ItemOID="IT.MDE.DTHFL.[SDTM_DM]_MDE_1" Mandatory="No" OrderNumber="12" Role="Record Qualifier"/>
        <ItemRef ItemOID="IT.MDE.SITEID.[SDTM_DM]_MDE_1" Mandatory="Yes" OrderNumber="13" Role="Record Qualifier"/>
        <ItemRef ItemOID="IT.MDE.INVID.[SDTM_DM]_MDE_1" Mandatory="No" OrderNumber="14" Role="Record Qualifier"/>
        <ItemRef ItemOID="IT.MDE.INVNAM.[SDTM_DM]_MDE_1" Mandatory="No" OrderNumber="15" Role="Synonym Qualifier"/>
        <ItemRef ItemOID="IT.MDE.BRTHDTC.[SDTM_DM]_MDE_1" Mandatory="No" OrderNumber="16" Role="Record Qualifier"/>
        <ItemRef ItemOID="IT.MDE.AGE.[SDTM_DM]_MDE_1" Mandatory="No" OrderNumber="17" Role="Record Qualifier"/>
        <ItemRef ItemOID="IT.MDE.AGEU.[SDTM_DM]_MDE_1" Mandatory="No" OrderNumber="18" Role="Variable Qualifier"/>
        <ItemRef ItemOID="IT.MDE.SEX.[SDTM_DM]_MDE_1" Mandatory="Yes" OrderNumber="19" Role="Record Qualifier"/>
        <ItemRef ItemOID="IT.MDE.RACE.[SDTM_DM]_MDE_2" Mandatory="No" OrderNumber="20" Role="Record Qualifier"/>
        <ItemRef ItemOID="IT.MDE.ETHNIC.[SDTM_DM]_MDE_2" Mandatory="No" OrderNumber="21" Role="Record Qualifier"/>
        <ItemRef ItemOID="IT.MDE.ARMCD.[SDTM_DM]_MDE_2" Mandatory="Yes" OrderNumber="22" Role="Record Qualifier"/>
        <ItemRef ItemOID="IT.MDE.ARM.[SDTM_DM]_MDE_1" Mandatory="Yes" OrderNumber="23" Role="Synonym Qualifier"/>
        <ItemRef ItemOID="IT.MDE.ACTARMCD.[SDTM_DM]_MDE_2" Mandatory="Yes" OrderNumber="24" Role="Record Qualifier"/>
        <ItemRef ItemOID="IT.MDE.ACTARM.[SDTM_DM]_MDE_2" Mandatory="Yes" OrderNumber="25" Role="Synonym Qualifier"/>
        <ItemRef ItemOID="IT.MDE.COUNTRY.[SDTM_DM]_MDE_2" Mandatory="Yes" OrderNumber="26" Role="Record Qualifier"/>
        <ItemRef ItemOID="IT.MDE.DMDTC.[SDTM_DM]_MDE_1" Mandatory="No" OrderNumber="27" Role="Timing"/>
        <ItemRef ItemOID="IT.MDE.DMDY.[SDTM_DM]_MDE_1" Mandatory="No" OrderNumber="28" Role="Timing"/>
      </ItemGroupDef>
      <ItemGroupDef Domain="SE" Name="SE" OID="IG.MDES.SE.[SDTM]_MDES_3" Purpose="Tabulation" Repeating="Yes" def:Class="SPECIAL PURPOSE" def:Structure="One record per actual Element per subject">
        <Description>
          <TranslatedText xml:lang="en">Subject Elements</TranslatedText>
        </Description>
        <ItemRef ItemOID="IT.MDE.STUDYID.[SDTM_SE]_MDE_1" Mandatory="Yes" OrderNumber="1" Role="Identifier"/>
        <ItemRef ItemOID="IT.MDE.DOMAIN.[SDTM_SE]_MDE_1" Mandatory="Yes" OrderNumber="2" Role="Identifier"/>
        <ItemRef ItemOID="IT.MDE.USUBJID.[SDTM_SE]_MDE_1" Mandatory="Yes" OrderNumber="3" Role="Identifier"/>
        <ItemRef ItemOID="IT.MDE.SESEQ.[SDTM_SE]_MDE_1" Mandatory="Yes" OrderNumber="4" Role="Identifier"/>
        <ItemRef ItemOID="IT.MDE.ETCD.[SDTM_SE]_MDE_2" Mandatory="Yes" OrderNumber="5" Role="Topic"/>
        <ItemRef ItemOID="IT.MDE.ELEMENT.[SDTM_SE]_MDE_2" Mandatory="No" OrderNumber="6" Role="Synonym Qualifier"/>
        <ItemRef ItemOID="IT.MDE.SESTDTC.[SDTM_SE]_MDE_1" Mandatory="Yes" OrderNumber="7" Role="Timing"/>
        <ItemRef ItemOID="IT.MDE.SEENDTC.[SDTM_SE]_MDE_1" Mandatory="No" OrderNumber="8" Role="Timing"/>
        <ItemRef ItemOID="IT.MDE.TAETORD.[SDTM_SE]_MDE_1" Mandatory="No" OrderNumber="9" Role="Timing"/>
        <ItemRef ItemOID="IT.MDE.EPOCH.[SDTM_SE]_MDE_2" Mandatory="No" OrderNumber="10" Role="Timing"/>
        <ItemRef ItemOID="IT.MDE.SEUPDES.[SDTM_SE]_MDE_2" Mandatory="No" OrderNumber="11" Role="Synonym Qualifier"/>
      </ItemGroupDef>
      <ItemGroupDef Domain="SV" Name="SV" OID="IG.MDES.SV.[SDTM]_MDES_3" Purpose="Tabulation" Repeating="Yes" def:Class="SPECIAL PURPOSE" def:Structure="One record per subject per actual visit">
        <Description>
          <TranslatedText xml:lang="en">Subject Visits</TranslatedText>
        </Description>
        <ItemRef ItemOID="IT.MDE.STUDYID.[SDTM_SV]_MDE_1" Mandatory="Yes" OrderNumber="1" Role="Identifier"/>
        <ItemRef ItemOID="IT.MDE.DOMAIN.[SDTM_SV]_MDE_1" Mandatory="Yes" OrderNumber="2" Role="Identifier"/>
        <ItemRef ItemOID="IT.MDE.USUBJID.[SDTM_SV]_MDE_1" Mandatory="Yes" OrderNumber="3" Role="Identifier"/>
        <ItemRef ItemOID="IT.MDE.VISITNUM.[SDTM_SV]_MDE_1" Mandatory="Yes" OrderNumber="4" Role="Topic"/>
        <ItemRef ItemOID="IT.MDE.VISIT.[SDTM_SV]_MDE_1" Mandatory="No" OrderNumber="5" Role="Synonym Qualifier"/>
        <ItemRef ItemOID="IT.MDE.VISITDY.[SDTM_SV]_MDE_1" Mandatory="No" OrderNumber="6" Role="Timing"/>
        <ItemRef ItemOID="IT.MDE.SVSTDTC.[SDTM_SV]_MDE_1" Mandatory="No" OrderNumber="7" Role="Timing"/>
        <ItemRef ItemOID="IT.MDE.SVENDTC.[SDTM_SV]_MDE_1" Mandatory="No" OrderNumber="8" Role="Timing"/>
        <ItemRef ItemOID="IT.MDE.SVSTDY.[SDTM_SV]_MDE_1" Mandatory="No" OrderNumber="9" Role="Timing"/>
        <ItemRef ItemOID="IT.MDE.SVENDY.[SDTM_SV]_MDE_1" Mandatory="No" OrderNumber="10" Role="Timing"/>
        <ItemRef ItemOID="IT.MDE.SVUPDES.[SDTM_SV]_MDE_1" Mandatory="No" OrderNumber="11" Role="Synonym Qualifier"/>
      </ItemGroupDef>
      <ItemGroupDef Domain="SUPPQUAL" Name="SUPPQUAL" OID="IG.MDES.SUPPQUAL.[SDTM]_MDES_3" Purpose="Tabulation" Repeating="Yes" def:Class="RELATIONSHIP" def:Structure="One record per IDVAR, IDVARVAL, and QNAM value per subject">
        <Description>
          <TranslatedText xml:lang="en">Supplemental Qualifiers [DOMAIN NAME]</TranslatedText>
        </Description>
        <ItemRef ItemOID="IT.MDE.STUDYID.[SDTM_SUPPQUAL]_MDE_1" Mandatory="Yes" OrderNumber="1"/>
        <ItemRef ItemOID="IT.MDE.RDOMAIN.[SDTM_SUPPQUAL]_MDE_1" Mandatory="Yes" OrderNumber="2"/>
        <ItemRef ItemOID="IT.MDE.USUBJID.[SDTM_SUPPQUAL]_MDE_1" Mandatory="Yes" OrderNumber="3"/>
        <ItemRef ItemOID="IT.MDE.IDVAR.[SDTM_SUPPQUAL]_MDE_1" Mandatory="No" OrderNumber="4"/>
        <ItemRef ItemOID="IT.MDE.IDVARVAL.[SDTM_SUPPQUAL]_MDE_1" Mandatory="No" OrderNumber="5"/>
        <ItemRef ItemOID="IT.MDE.QNAM.[SDTM_SUPPQUAL]_MDE_2" Mandatory="Yes" OrderNumber="6"/>
        <ItemRef ItemOID="IT.MDE.QLABEL.[SDTM_SUPPQUAL]_MDE_2" Mandatory="Yes" OrderNumber="7"/>
        <ItemRef ItemOID="IT.MDE.QVAL.[SDTM_SUPPQUAL]_MDE_1" Mandatory="Yes" OrderNumber="8"/>
        <ItemRef ItemOID="IT.MDE.QORIG.[SDTM_SUPPQUAL]_MDE_2" Mandatory="Yes" OrderNumber="9"/>
        <ItemRef ItemOID="IT.MDE.QEVAL.[SDTM_SUPPQUAL]_MDE_1" Mandatory="No" OrderNumber="10"/>
      </ItemGroupDef>
      <ItemGroupDef Domain="RELREC" Name="RELREC" OID="IG.MDES.RELREC.[SDTM]_MDES_3" Purpose="Tabulation" Repeating="Yes" def:Class="RELATIONSHIP" def:Structure="One record per related record, group of records or dataset">
        <Description>
          <TranslatedText xml:lang="en">Related Records</TranslatedText>
        </Description>
        <ItemRef ItemOID="IT.MDE.STUDYID.[SDTM_RELREC]_MDE_1" Mandatory="Yes" OrderNumber="1"/>
        <ItemRef ItemOID="IT.MDE.RDOMAIN.[SDTM_RELREC]_MDE_1" Mandatory="Yes" OrderNumber="2"/>
        <ItemRef ItemOID="IT.MDE.USUBJID.[SDTM_RELREC]_MDE_1" Mandatory="No" OrderNumber="3"/>
        <ItemRef ItemOID="IT.MDE.IDVAR.[SDTM_RELREC]_MDE_1" Mandatory="Yes" OrderNumber="4"/>
        <ItemRef ItemOID="IT.MDE.IDVARVAL.[SDTM_RELREC]_MDE_2" Mandatory="No" OrderNumber="5"/>
        <ItemRef ItemOID="IT.MDE.RELTYPE.[SDTM_RELREC]_MDE_2" Mandatory="No" OrderNumber="6"/>
        <ItemRef ItemOID="IT.MDE.RELID.[SDTM_RELREC]_MDE_2" Mandatory="Yes" OrderNumber="7"/>
      </ItemGroupDef>
      <ItemGroupDef Domain="POOLDEF" Name="POOLDEF" OID="IG.MDES.POOLDEF.[SDTM]_MDES_2" Purpose="Tabulation" Repeating="No" def:Class="RELATIONSHIP" def:Structure="One record per subject per pool">
        <Description>
          <TranslatedText xml:lang="en">Pool Definition Dataset</TranslatedText>
        </Description>
        <ItemRef ItemOID="IT.MDE.STUDYID.[SDTM_POOLDEF]_MDE_1" Mandatory="No" OrderNumber="1"/>
        <ItemRef ItemOID="IT.MDE.POOLID.[SDTM_POOLDEF]_MDE_1" Mandatory="No" OrderNumber="2"/>
        <ItemRef ItemOID="IT.MDE.USUBJID.[SDTM_POOLDEF]_MDE_1" Mandatory="No" OrderNumber="3"/>
        <ItemRef ItemOID="IT.MDE.APID.[SDTM_POOLDEF]_MDE_1" Mandatory="No" OrderNumber="4"/>
      </ItemGroupDef>
      <ItemGroupDef Domain="RELSUB" Name="RELSUB" OID="IG.MDES.RELSUB.[SDTM]_MDES_1" Purpose="Tabulation" Repeating="Yes" def:Class="RELATIONSHIP" def:Structure="">
        <Description>
          <TranslatedText xml:lang="en">Related Subjects</TranslatedText>
        </Description>
        <ItemRef ItemOID="IT.MDE.STUDYID.[SDTM_RELSUB]_MDE_1" Mandatory="No" OrderNumber="1"/>
        <ItemRef ItemOID="IT.MDE.USUBJID.[SDTM_RELSUB]_MDE_1" Mandatory="No" OrderNumber="2"/>
        <ItemRef ItemOID="IT.MDE.POOLID.[SDTM_RELSUB]_MDE_1" Mandatory="No" OrderNumber="3"/>
        <ItemRef ItemOID="IT.MDE.RSUBJID.[SDTM_RELSUB]_MDE_1" Mandatory="No" OrderNumber="4"/>
        <ItemRef ItemOID="IT.MDE.SREL.[SDTM_RELSUB]_MDE_1" Mandatory="No" OrderNumber="5"/>
      </ItemGroupDef>
      <ItemGroupDef Domain="APDM" Name="APDM" OID="IG.MDES.APDM.[SDTM]_MDES_1" Purpose="Tabulation" Repeating="Yes" def:Class="ASSOCIATED PERSONS" def:Structure="One record per associated person">
        <Description>
          <TranslatedText xml:lang="en">Associated Persons Demographics</TranslatedText>
        </Description>
        <ItemRef ItemOID="IT.MDE.STUDYID.[SDTM_APDM]_MDE_1" Mandatory="Yes" OrderNumber="1" Role="Identifier"/>
        <ItemRef ItemOID="IT.MDE.DOMAIN.[SDTM_APDM]_MDE_1" Mandatory="Yes" OrderNumber="2" Role="Identifier"/>
        <ItemRef ItemOID="IT.MDE.APID.[SDTM_APDM]_MDE_1" Mandatory="Yes" OrderNumber="3" Role="Topic"/>
        <ItemRef ItemOID="IT.MDE.RSUBJID.[SDTM_APDM]_MDE_1" Mandatory="No" OrderNumber="4" Role="Record Qualifier"/>
        <ItemRef ItemOID="IT.MDE.RDEVID.[SDTM_APDM]_MDE_1" Mandatory="No" OrderNumber="5" Role="Record Qualifier"/>
        <ItemRef ItemOID="IT.MDE.SREL.[SDTM_APDM]_MDE_1" Mandatory="Yes" OrderNumber="6" Role="Record Qualifier"/>
        <ItemRef ItemOID="IT.MDE.DTHDTC.[SDTM_APDM]_MDE_1" Mandatory="No" OrderNumber="7" Role="Record Qualifier"/>
        <ItemRef ItemOID="IT.MDE.DTHFL.[SDTM_APDM]_MDE_1" Mandatory="No" OrderNumber="8" Role="Record Qualifier"/>
        <ItemRef ItemOID="IT.MDE.INVNAM.[SDTM_APDM]_MDE_1" Mandatory="No" OrderNumber="9" Role="Variable Qualifier"/>
        <ItemRef ItemOID="IT.MDE.BRTHDTC.[SDTM_APDM]_MDE_1" Mandatory="No" OrderNumber="10" Role="Record Qualifier"/>
        <ItemRef ItemOID="IT.MDE.AGE.[SDTM_APDM]_MDE_1" Mandatory="No" OrderNumber="11" Role="Record Qualifier"/>
        <ItemRef ItemOID="IT.MDE.AGEU.[SDTM_APDM]_MDE_1" Mandatory="No" OrderNumber="12" Role="Variable Qualifier"/>
        <ItemRef ItemOID="IT.MDE.SEX.[SDTM_APDM]_MDE_1" Mandatory="No" OrderNumber="13" Role="Record Qualifier"/>
        <ItemRef ItemOID="IT.MDE.RACE.[SDTM_APDM]_MDE_1" Mandatory="No" OrderNumber="14" Role="Record Qualifier"/>
        <ItemRef ItemOID="IT.MDE.ETHNIC.[SDTM_APDM]_MDE_1" Mandatory="No" OrderNumber="15" Role="Record Qualifier"/>
        <ItemRef ItemOID="IT.MDE.COUNTRY.[SDTM_APDM]_MDE_1" Mandatory="No" OrderNumber="16" Role="Record Qualifier"/>
        <ItemRef ItemOID="IT.MDE.DMDTC.[SDTM_APDM]_MDE_1" Mandatory="No" OrderNumber="17" Role="Timing"/>
      </ItemGroupDef>
      <ItemGroupDef Domain="APRELSUB" Name="APRELSUB" OID="IG.MDES.APRELSUB.[SDTM]_MDES_1" Purpose="Tabulation" Repeating="Yes" def:Class="ASSOCIATED PERSONS" def:Structure="">
        <ItemRef ItemOID="IT.MDE.STUDYID.[SDTM_APRELSUB]_MDE_1" Mandatory="No" OrderNumber="1" Role="Identifier"/>
        <ItemRef ItemOID="IT.MDE.APID.[SDTM_APRELSUB]_MDE_1" Mandatory="No" OrderNumber="2" Role="Identifier"/>
        <ItemRef ItemOID="IT.MDE.RSUBJID.[SDTM_APRELSUB]_MDE_1" Mandatory="No" OrderNumber="3" Role="Identifier"/>
        <ItemRef ItemOID="IT.MDE.RDEVID.[SDTM_APRELSUB]_MDE_1" Mandatory="No" OrderNumber="4" Role="Identifier"/>
        <ItemRef ItemOID="IT.MDE.SREL.[SDTM_APRELSUB]_MDE_1" Mandatory="No" OrderNumber="5" Role="Record Qualifier"/>
      </ItemGroupDef>
      <ItemGroupDef Domain="FA" Name="FA" OID="IG.MDES.FA.[SDTM]_MDES_3" Purpose="Tabulation" Repeating="Yes" def:Class="FINDINGS ABOUNT" def:Structure="One record per finding, per object, per time point, per visit per subject">
        <Description>
          <TranslatedText xml:lang="en">Findings About</TranslatedText>
        </Description>
        <ItemRef ItemOID="IT.MDE.STUDYID.[SDTM_FA]_MDE_1" Mandatory="Yes" OrderNumber="1" Role="Identifier"/>
        <ItemRef ItemOID="IT.MDE.DOMAIN.[SDTM_FA]_MDE_1" Mandatory="Yes" OrderNumber="2" Role="Identifier"/>
        <ItemRef ItemOID="IT.MDE.USUBJID.[SDTM_FA]_MDE_1" Mandatory="Yes" OrderNumber="3" Role="Identifier"/>
        <ItemRef ItemOID="IT.MDE.FASEQ.[SDTM_FA]_MDE_1" Mandatory="Yes" OrderNumber="4" Role="Identifier"/>
        <ItemRef ItemOID="IT.MDE.FAGRPID.[SDTM_FA]_MDE_1" Mandatory="No" OrderNumber="5" Role="Identifier"/>
        <ItemRef ItemOID="IT.MDE.FASPID.[SDTM_FA]_MDE_2" Mandatory="No" OrderNumber="6" Role="Identifier"/>
        <ItemRef ItemOID="IT.MDE.FATESTCD.[SDTM_FA]_MDE_2" Mandatory="Yes" OrderNumber="7" Role="Topic"/>
        <ItemRef ItemOID="IT.MDE.FATEST.[SDTM_FA]_MDE_2" Mandatory="Yes" OrderNumber="8" Role="Synonym Qualifier"/>
        <ItemRef ItemOID="IT.MDE.FAOBJ.[SDTM_FA]_MDE_1" Mandatory="Yes" OrderNumber="9" Role="Record Qualifier"/>
        <ItemRef ItemOID="IT.MDE.FACAT.[SDTM_FA]_MDE_2" Mandatory="No" OrderNumber="10" Role="Grouping Qualifier"/>
        <ItemRef ItemOID="IT.MDE.FASCAT.[SDTM_FA]_MDE_1" Mandatory="No" OrderNumber="11" Role="Grouping Qualifier"/>
        <ItemRef ItemOID="IT.MDE.FAORRES.[SDTM_FA]_MDE_1" Mandatory="No" OrderNumber="12" Role="Result Qualifier"/>
        <ItemRef ItemOID="IT.MDE.FAORRESU.[SDTM_FA]_MDE_1" Mandatory="No" OrderNumber="13" Role="Variable Qualifier"/>
        <ItemRef ItemOID="IT.MDE.FASTRESC.[SDTM_FA]_MDE_2" Mandatory="No" OrderNumber="14" Role="Result Qualifier"/>
        <ItemRef ItemOID="IT.MDE.FASTRESN.[SDTM_FA]_MDE_1" Mandatory="No" OrderNumber="15" Role="Result Qualifier"/>
        <ItemRef ItemOID="IT.MDE.FASTRESU.[SDTM_FA]_MDE_1" Mandatory="No" OrderNumber="16" Role="Variable Qualifier"/>
        <ItemRef ItemOID="IT.MDE.FASTAT.[SDTM_FA]_MDE_1" Mandatory="No" OrderNumber="17" Role="Record Qualifier"/>
        <ItemRef ItemOID="IT.MDE.FAREASND.[SDTM_FA]_MDE_1" Mandatory="No" OrderNumber="18" Role="Record Qualifier"/>
        <ItemRef ItemOID="IT.MDE.FALOC.[SDTM_FA]_MDE_2" Mandatory="No" OrderNumber="19" Role="Record Qualifier"/>
        <ItemRef ItemOID="IT.MDE.FALAT.[SDTM_FA]_MDE_1" Mandatory="No" OrderNumber="20" Role="Result Qualifier"/>
        <ItemRef ItemOID="IT.MDE.FABLFL.[SDTM_FA]_MDE_2" Mandatory="No" OrderNumber="21" Role="Record Qualifier"/>
        <ItemRef ItemOID="IT.MDE.FAEVAL.[SDTM_FA]_MDE_2" Mandatory="No" OrderNumber="22" Role="Record Qualifier"/>
        <ItemRef ItemOID="IT.MDE.VISITNUM.[SDTM_FA]_MDE_2" Mandatory="No" OrderNumber="23" Role="Timing"/>
        <ItemRef ItemOID="IT.MDE.VISIT.[SDTM_FA]_MDE_2" Mandatory="No" OrderNumber="24" Role="Timing"/>
        <ItemRef ItemOID="IT.MDE.VISITDY.[SDTM_FA]_MDE_1" Mandatory="No" OrderNumber="25" Role="Timing"/>
        <ItemRef ItemOID="IT.MDE.FADTC.[SDTM_FA]_MDE_1" Mandatory="No" OrderNumber="26" Role="Timing"/>
        <ItemRef ItemOID="IT.MDE.FADY.[SDTM_FA]_MDE_2" Mandatory="No" OrderNumber="27" Role="Timing"/>
      </ItemGroupDef>
      <ItemGroupDef Domain="SR" Name="SR" OID="IG.MDES.SR.[SDTM]_MDES_1" Purpose="Tabulation" Repeating="Yes" def:Class="FINDINGS ABOUNT" def:Structure="One record per test per visit per subject">
        <Description>
          <TranslatedText xml:lang="en">Skin Response</TranslatedText>
        </Description>
        <ItemRef ItemOID="IT.MDE.STUDYID.[SDTM_SR]_MDE_1" Mandatory="Yes" OrderNumber="1" Role="Identifier"/>
        <ItemRef ItemOID="IT.MDE.DOMAIN.[SDTM_SR]_MDE_1" Mandatory="Yes" OrderNumber="2" Role="Identifier"/>
        <ItemRef ItemOID="IT.MDE.USUBJID.[SDTM_SR]_MDE_1" Mandatory="Yes" OrderNumber="3" Role="Identifier"/>
        <ItemRef ItemOID="IT.MDE.SRSEQ.[SDTM_SR]_MDE_1" Mandatory="Yes" OrderNumber="4" Role="Identifier"/>
        <ItemRef ItemOID="IT.MDE.SRGRPID.[SDTM_SR]_MDE_1" Mandatory="No" OrderNumber="5" Role="Identifier"/>
        <ItemRef ItemOID="IT.MDE.SRREFID.[SDTM_SR]_MDE_1" Mandatory="No" OrderNumber="6" Role="Identifier"/>
        <ItemRef ItemOID="IT.MDE.SRSPID.[SDTM_SR]_MDE_1" Mandatory="No" OrderNumber="7" Role="Identifier"/>
        <ItemRef ItemOID="IT.MDE.SRTESTCD.[SDTM_SR]_MDE_1" Mandatory="Yes" OrderNumber="8" Role="Topic"/>
        <ItemRef ItemOID="IT.MDE.SRTEST.[SDTM_SR]_MDE_1" Mandatory="Yes" OrderNumber="9" Role="Synonym Qualifier"/>
        <ItemRef ItemOID="IT.MDE.SROBJ.[SDTM_SR]_MDE_1" Mandatory="Yes" OrderNumber="10" Role="Record Qualifier"/>
        <ItemRef ItemOID="IT.MDE.SRCAT.[SDTM_SR]_MDE_1" Mandatory="No" OrderNumber="11" Role="Grouping Qualifier"/>
        <ItemRef ItemOID="IT.MDE.SRSCAT.[SDTM_SR]_MDE_1" Mandatory="No" OrderNumber="12" Role="Grouping Qualifier"/>
        <ItemRef ItemOID="IT.MDE.SRORRES.[SDTM_SR]_MDE_1" Mandatory="No" OrderNumber="13" Role="Result Qualifier"/>
        <ItemRef ItemOID="IT.MDE.SRORRESU.[SDTM_SR]_MDE_1" Mandatory="No" OrderNumber="14" Role="Variable Qualifier"/>
        <ItemRef ItemOID="IT.MDE.SRSTRESC.[SDTM_SR]_MDE_1" Mandatory="No" OrderNumber="15" Role="Result Qualifier"/>
        <ItemRef ItemOID="IT.MDE.SRSTRESN.[SDTM_SR]_MDE_1" Mandatory="No" OrderNumber="16" Role="Result Qualifier"/>
        <ItemRef ItemOID="IT.MDE.SRSTRESU.[SDTM_SR]_MDE_1" Mandatory="No" OrderNumber="17" Role="Variable Qualifier"/>
        <ItemRef ItemOID="IT.MDE.SRSTAT.[SDTM_SR]_MDE_1" Mandatory="No" OrderNumber="18" Role="Record Qualifier"/>
        <ItemRef ItemOID="IT.MDE.SRREASND.[SDTM_SR]_MDE_1" Mandatory="No" OrderNumber="19" Role="Record Qualifier"/>
        <ItemRef ItemOID="IT.MDE.SRNAM.[SDTM_SR]_MDE_1" Mandatory="No" OrderNumber="20" Role="Record Qualifier"/>
        <ItemRef ItemOID="IT.MDE.SRSPEC.[SDTM_SR]_MDE_1" Mandatory="No" OrderNumber="21" Role="Record Qualifier"/>
        <ItemRef ItemOID="IT.MDE.SRLOC.[SDTM_SR]_MDE_1" Mandatory="No" OrderNumber="22" Role="Record Qualifier"/>
        <ItemRef ItemOID="IT.MDE.SRLAT.[SDTM_SR]_MDE_1" Mandatory="No" OrderNumber="23" Role="Result Qualifier"/>
        <ItemRef ItemOID="IT.MDE.SRMETHOD.[SDTM_SR]_MDE_1" Mandatory="No" OrderNumber="24" Role="Record Qualifier"/>
        <ItemRef ItemOID="IT.MDE.SREVAL.[SDTM_SR]_MDE_1" Mandatory="No" OrderNumber="25" Role="Record Qualifier"/>
        <ItemRef ItemOID="IT.MDE.VISITNUM.[SDTM_SR]_MDE_1" Mandatory="No" OrderNumber="26" Role="Timing"/>
        <ItemRef ItemOID="IT.MDE.VISIT.[SDTM_SR]_MDE_1" Mandatory="No" OrderNumber="27" Role="Timing"/>
        <ItemRef ItemOID="IT.MDE.VISITDY.[SDTM_SR]_MDE_1" Mandatory="No" OrderNumber="28" Role="Timing"/>
        <ItemRef ItemOID="IT.MDE.SRDTC.[SDTM_SR]_MDE_1" Mandatory="No" OrderNumber="29" Role="Timing"/>
        <ItemRef ItemOID="IT.MDE.SRDY.[SDTM_SR]_MDE_1" Mandatory="No" OrderNumber="30" Role="Timing"/>
        <ItemRef ItemOID="IT.MDE.SRTPT.[SDTM_SR]_MDE_1" Mandatory="No" OrderNumber="31" Role="Timing"/>
        <ItemRef ItemOID="IT.MDE.SRTPTNUM.[SDTM_SR]_MDE_1" Mandatory="No" OrderNumber="32" Role="Timing"/>
        <ItemRef ItemOID="IT.MDE.SRELTM.[SDTM_SR]_MDE_1" Mandatory="No" OrderNumber="33" Role="Timing"/>
        <ItemRef ItemOID="IT.MDE.SRTPTREF.[SDTM_SR]_MDE_1" Mandatory="No" OrderNumber="34" Role="Timing"/>
        <ItemRef ItemOID="IT.MDE.SRRFTDTC.[SDTM_SR]_MDE_1" Mandatory="No" OrderNumber="35" Role="Timing"/>
      </ItemGroupDef>
      <ItemGroupDef Domain="DA" Name="DA" OID="IG.MDES.DA.[SDTM]_MDES_3" Purpose="Tabulation" Repeating="Yes" def:Class="FINDINGS" def:Structure="One record per drug accountability finding per subject">
        <Description>
          <TranslatedText xml:lang="en">Drug Accountability</TranslatedText>
        </Description>
        <ItemRef ItemOID="IT.MDE.STUDYID.[SDTM_DA]_MDE_1" Mandatory="Yes" OrderNumber="1" Role="Identifier"/>
        <ItemRef ItemOID="IT.MDE.DOMAIN.[SDTM_DA]_MDE_1" Mandatory="Yes" OrderNumber="2" Role="Identifier"/>
        <ItemRef ItemOID="IT.MDE.USUBJID.[SDTM_DA]_MDE_1" Mandatory="Yes" OrderNumber="3" Role="Identifier"/>
        <ItemRef ItemOID="IT.MDE.DASEQ.[SDTM_DA]_MDE_1" Mandatory="Yes" OrderNumber="4" Role="Identifier"/>
        <ItemRef ItemOID="IT.MDE.DAGRPID.[SDTM_DA]_MDE_1" Mandatory="No" OrderNumber="5" Role="Identifier"/>
        <ItemRef ItemOID="IT.MDE.DAREFID.[SDTM_DA]_MDE_1" Mandatory="No" OrderNumber="6" Role="Identifier"/>
        <ItemRef ItemOID="IT.MDE.DASPID.[SDTM_DA]_MDE_2" Mandatory="No" OrderNumber="7" Role="Identifier"/>
        <ItemRef ItemOID="IT.MDE.DATESTCD.[SDTM_DA]_MDE_1" Mandatory="Yes" OrderNumber="8" Role="Topic"/>
        <ItemRef ItemOID="IT.MDE.DATEST.[SDTM_DA]_MDE_1" Mandatory="Yes" OrderNumber="9" Role="Synonym Qualifier"/>
        <ItemRef ItemOID="IT.MDE.DACAT.[SDTM_DA]_MDE_1" Mandatory="No" OrderNumber="10" Role="Grouping Qualifier"/>
        <ItemRef ItemOID="IT.MDE.DASCAT.[SDTM_DA]_MDE_1" Mandatory="No" OrderNumber="11" Role="Grouping Qualifier"/>
        <ItemRef ItemOID="IT.MDE.DAORRES.[SDTM_DA]_MDE_1" Mandatory="No" OrderNumber="12" Role="Result Qualifier"/>
        <ItemRef ItemOID="IT.MDE.DAORRESU.[SDTM_DA]_MDE_1" Mandatory="No" OrderNumber="13" Role="Variable Qualifier"/>
        <ItemRef ItemOID="IT.MDE.DASTRESC.[SDTM_DA]_MDE_1" Mandatory="No" OrderNumber="14" Role="Result Qualifier"/>
        <ItemRef ItemOID="IT.MDE.DASTRESN.[SDTM_DA]_MDE_1" Mandatory="No" OrderNumber="15" Role="Result Qualifier"/>
        <ItemRef ItemOID="IT.MDE.DASTRESU.[SDTM_DA]_MDE_1" Mandatory="No" OrderNumber="16" Role="Variable Qualifier"/>
        <ItemRef ItemOID="IT.MDE.DASTAT.[SDTM_DA]_MDE_1" Mandatory="No" OrderNumber="17" Role="Record Qualifier"/>
        <ItemRef ItemOID="IT.MDE.DAREASND.[SDTM_DA]_MDE_1" Mandatory="No" OrderNumber="18" Role="Record Qualifier"/>
        <ItemRef ItemOID="IT.MDE.VISITNUM.[SDTM_DA]_MDE_1" Mandatory="No" OrderNumber="19" Role="Timing"/>
        <ItemRef ItemOID="IT.MDE.VISIT.[SDTM_DA]_MDE_1" Mandatory="No" OrderNumber="20" Role="Timing"/>
        <ItemRef ItemOID="IT.MDE.VISITDY.[SDTM_DA]_MDE_1" Mandatory="No" OrderNumber="21" Role="Timing"/>
        <ItemRef ItemOID="IT.MDE.DADTC.[SDTM_DA]_MDE_1" Mandatory="No" OrderNumber="22" Role="Timing"/>
        <ItemRef ItemOID="IT.MDE.DADY.[SDTM_DA]_MDE_1" Mandatory="No" OrderNumber="23" Role="Timing"/>
      </ItemGroupDef>
      <ItemGroupDef Domain="DD" Name="DD" OID="IG.MDES.DD.[SDTM]_MDES_1" Purpose="Tabulation" Repeating="Yes" def:Class="FINDINGS" def:Structure="One record per finding per subject">
        <Description>
          <TranslatedText xml:lang="en">Death Details</TranslatedText>
        </Description>
        <ItemRef ItemOID="IT.MDE.STUDYID.[SDTM_DD]_MDE_1" Mandatory="Yes" OrderNumber="1" Role="Identifier"/>
        <ItemRef ItemOID="IT.MDE.DOMAIN.[SDTM_DD]_MDE_1" Mandatory="Yes" OrderNumber="2" Role="Identifier"/>
        <ItemRef ItemOID="IT.MDE.USUBJID.[SDTM_DD]_MDE_1" Mandatory="Yes" OrderNumber="3" Role="Identifier"/>
        <ItemRef ItemOID="IT.MDE.DDSEQ.[SDTM_DD]_MDE_1" Mandatory="Yes" OrderNumber="4" Role="Identifier"/>
        <ItemRef ItemOID="IT.MDE.DDTESTCD.[SDTM_DD]_MDE_1" Mandatory="Yes" OrderNumber="5" Role="Topic"/>
        <ItemRef ItemOID="IT.MDE.DDTEST.[SDTM_DD]_MDE_1" Mandatory="Yes" OrderNumber="6" Role="Synonym Qualifier"/>
        <ItemRef ItemOID="IT.MDE.DDORRES.[SDTM_DD]_MDE_1" Mandatory="No" OrderNumber="7" Role="Result Qualifier"/>
        <ItemRef ItemOID="IT.MDE.DDSTRESC.[SDTM_DD]_MDE_1" Mandatory="No" OrderNumber="8" Role="Result Qualifier"/>
        <ItemRef ItemOID="IT.MDE.DDRESCAT.[SDTM_DD]_MDE_1" Mandatory="No" OrderNumber="9" Role="Variable Qualifier"/>
        <ItemRef ItemOID="IT.MDE.DDEVAL.[SDTM_DD]_MDE_1" Mandatory="No" OrderNumber="10" Role="Record Qualifier"/>
        <ItemRef ItemOID="IT.MDE.DDDTC.[SDTM_DD]_MDE_1" Mandatory="No" OrderNumber="11" Role="Timing"/>
        <ItemRef ItemOID="IT.MDE.DDDY.[SDTM_DD]_MDE_1" Mandatory="No" OrderNumber="12" Role="Timing"/>
      </ItemGroupDef>
      <ItemGroupDef Domain="EG" Name="EG" OID="IG.MDES.EG.[SDTM]_MDES_3" Purpose="Tabulation" Repeating="Yes" def:Class="FINDINGS" def:Structure="One record per ECG observation per time point per visit per subject">
        <Description>
          <TranslatedText xml:lang="en">Electrocardiogram Results</TranslatedText>
        </Description>
        <ItemRef ItemOID="IT.MDE.STUDYID.[SDTM_EG]_MDE_1" Mandatory="Yes" OrderNumber="1" Role="Identifier"/>
        <ItemRef ItemOID="IT.MDE.DOMAIN.[SDTM_EG]_MDE_1" Mandatory="Yes" OrderNumber="2" Role="Identifier"/>
        <ItemRef ItemOID="IT.MDE.USUBJID.[SDTM_EG]_MDE_1" Mandatory="Yes" OrderNumber="3" Role="Identifier"/>
        <ItemRef ItemOID="IT.MDE.EGSEQ.[SDTM_EG]_MDE_1" Mandatory="Yes" OrderNumber="4" Role="Identifier"/>
        <ItemRef ItemOID="IT.MDE.EGGRPID.[SDTM_EG]_MDE_1" Mandatory="No" OrderNumber="5" Role="Identifier"/>
        <ItemRef ItemOID="IT.MDE.EGREFID.[SDTM_EG]_MDE_1" Mandatory="No" OrderNumber="6" Role="Identifier"/>
        <ItemRef ItemOID="IT.MDE.EGSPID.[SDTM_EG]_MDE_1" Mandatory="No" OrderNumber="7" Role="Identifier"/>
        <ItemRef ItemOID="IT.MDE.EGTESTCD.[SDTM_EG]_MDE_2" Mandatory="Yes" OrderNumber="8" Role="Topic"/>
        <ItemRef ItemOID="IT.MDE.EGTEST.[SDTM_EG]_MDE_1" Mandatory="Yes" OrderNumber="9" Role="Synonym Qualifier"/>
        <ItemRef ItemOID="IT.MDE.EGCAT.[SDTM_EG]_MDE_1" Mandatory="No" OrderNumber="10" Role="Grouping Qualifier"/>
        <ItemRef ItemOID="IT.MDE.EGSCAT.[SDTM_EG]_MDE_1" Mandatory="No" OrderNumber="11" Role="Grouping Qualifier"/>
        <ItemRef ItemOID="IT.MDE.EGPOS.[SDTM_EG]_MDE_1" Mandatory="No" OrderNumber="12" Role="Record Qualifier"/>
        <ItemRef ItemOID="IT.MDE.EGORRES.[SDTM_EG]_MDE_2" Mandatory="No" OrderNumber="13" Role="Result Qualifier"/>
        <ItemRef ItemOID="IT.MDE.EGORRESU.[SDTM_EG]_MDE_1" Mandatory="No" OrderNumber="14" Role="Variable Qualifier"/>
        <ItemRef ItemOID="IT.MDE.EGSTRESC.[SDTM_EG]_MDE_2" Mandatory="No" OrderNumber="15" Role="Result Qualifier"/>
        <ItemRef ItemOID="IT.MDE.EGSTRESN.[SDTM_EG]_MDE_1" Mandatory="No" OrderNumber="16" Role="Result Qualifier"/>
        <ItemRef ItemOID="IT.MDE.EGSTRESU.[SDTM_EG]_MDE_1" Mandatory="No" OrderNumber="17" Role="Variable Qualifier"/>
        <ItemRef ItemOID="IT.MDE.EGSTAT.[SDTM_EG]_MDE_1" Mandatory="No" OrderNumber="18" Role="Record Qualifier"/>
        <ItemRef ItemOID="IT.MDE.EGREASND.[SDTM_EG]_MDE_1" Mandatory="No" OrderNumber="19" Role="Record Qualifier"/>
        <ItemRef ItemOID="IT.MDE.EGXFN.[SDTM_EG]_MDE_1" Mandatory="No" OrderNumber="20" Role="Record Qualifier"/>
        <ItemRef ItemOID="IT.MDE.EGNAM.[SDTM_EG]_MDE_1" Mandatory="No" OrderNumber="21" Role="Record Qualifier"/>
        <ItemRef ItemOID="IT.MDE.EGLEAD.[SDTM_EG]_MDE_1" Mandatory="No" OrderNumber="22" Role="Record Qualifier"/>
        <ItemRef ItemOID="IT.MDE.EGMETHOD.[SDTM_EG]_MDE_1" Mandatory="No" OrderNumber="23" Role="Record Qualifier"/>
        <ItemRef ItemOID="IT.MDE.EGBLFL.[SDTM_EG]_MDE_2" Mandatory="No" OrderNumber="24" Role="Record Qualifier"/>
        <ItemRef ItemOID="IT.MDE.EGDRVFL.[SDTM_EG]_MDE_1" Mandatory="No" OrderNumber="25" Role="Record Qualifier"/>
        <ItemRef ItemOID="IT.MDE.EGEVAL.[SDTM_EG]_MDE_1" Mandatory="No" OrderNumber="26" Role="Record Qualifier"/>
        <ItemRef ItemOID="IT.MDE.VISITNUM.[SDTM_EG]_MDE_1" Mandatory="No" OrderNumber="27" Role="Timing"/>
        <ItemRef ItemOID="IT.MDE.VISIT.[SDTM_EG]_MDE_1" Mandatory="No" OrderNumber="28" Role="Timing"/>
        <ItemRef ItemOID="IT.MDE.VISITDY.[SDTM_EG]_MDE_1" Mandatory="No" OrderNumber="29" Role="Timing"/>
        <ItemRef ItemOID="IT.MDE.EGDTC.[SDTM_EG]_MDE_1" Mandatory="No" OrderNumber="30" Role="Timing"/>
        <ItemRef ItemOID="IT.MDE.EGDY.[SDTM_EG]_MDE_1" Mandatory="No" OrderNumber="31" Role="Timing"/>
        <ItemRef ItemOID="IT.MDE.EGTPT.[SDTM_EG]_MDE_1" Mandatory="No" OrderNumber="32" Role="Timing"/>
        <ItemRef ItemOID="IT.MDE.EGTPTNUM.[SDTM_EG]_MDE_1" Mandatory="No" OrderNumber="33" Role="Timing"/>
        <ItemRef ItemOID="IT.MDE.EGELTM.[SDTM_EG]_MDE_2" Mandatory="No" OrderNumber="34" Role="Timing"/>
        <ItemRef ItemOID="IT.MDE.EGTPTREF.[SDTM_EG]_MDE_1" Mandatory="No" OrderNumber="35" Role="Timing"/>
        <ItemRef ItemOID="IT.MDE.EGRFTDTC.[SDTM_EG]_MDE_1" Mandatory="No" OrderNumber="36" Role="Timing"/>
      </ItemGroupDef>
      <ItemGroupDef Domain="IE" Name="IE" OID="IG.MDES.IE.[SDTM]_MDES_3" Purpose="Tabulation" Repeating="Yes" def:Class="FINDINGS" def:Structure="One record per inclusion/exclusion criterion not met per subject">
        <Description>
          <TranslatedText xml:lang="en">Inclusion/Exclusion Criteria Not Met</TranslatedText>
        </Description>
        <ItemRef ItemOID="IT.MDE.STUDYID.[SDTM_IE]_MDE_1" Mandatory="Yes" OrderNumber="1" Role="Identifier"/>
        <ItemRef ItemOID="IT.MDE.DOMAIN.[SDTM_IE]_MDE_1" Mandatory="Yes" OrderNumber="2" Role="Identifier"/>
        <ItemRef ItemOID="IT.MDE.USUBJID.[SDTM_IE]_MDE_1" Mandatory="Yes" OrderNumber="3" Role="Identifier"/>
        <ItemRef ItemOID="IT.MDE.IESEQ.[SDTM_IE]_MDE_1" Mandatory="Yes" OrderNumber="4" Role="Identifier"/>
        <ItemRef ItemOID="IT.MDE.IESPID.[SDTM_IE]_MDE_2" Mandatory="No" OrderNumber="5" Role="Identifier"/>
        <ItemRef ItemOID="IT.MDE.IETESTCD.[SDTM_IE]_MDE_2" Mandatory="Yes" OrderNumber="6" Role="Topic"/>
        <ItemRef ItemOID="IT.MDE.IETEST.[SDTM_IE]_MDE_1" Mandatory="Yes" OrderNumber="7" Role="Synonym Qualifier"/>
        <ItemRef ItemOID="IT.MDE.IECAT.[SDTM_IE]_MDE_1" Mandatory="Yes" OrderNumber="8" Role="Grouping Qualifier"/>
        <ItemRef ItemOID="IT.MDE.IESCAT.[SDTM_IE]_MDE_1" Mandatory="No" OrderNumber="9" Role="Grouping Qualifier"/>
        <ItemRef ItemOID="IT.MDE.IEORRES.[SDTM_IE]_MDE_1" Mandatory="Yes" OrderNumber="10" Role="Result Qualifier"/>
        <ItemRef ItemOID="IT.MDE.IESTRESC.[SDTM_IE]_MDE_1" Mandatory="Yes" OrderNumber="11" Role="Result Qualifier"/>
        <ItemRef ItemOID="IT.MDE.VISITNUM.[SDTM_IE]_MDE_1" Mandatory="No" OrderNumber="12" Role="Timing"/>
        <ItemRef ItemOID="IT.MDE.VISIT.[SDTM_IE]_MDE_1" Mandatory="No" OrderNumber="13" Role="Timing"/>
        <ItemRef ItemOID="IT.MDE.VISITDY.[SDTM_IE]_MDE_1" Mandatory="No" OrderNumber="14" Role="Timing"/>
        <ItemRef ItemOID="IT.MDE.IEDTC.[SDTM_IE]_MDE_1" Mandatory="No" OrderNumber="15" Role="Timing"/>
        <ItemRef ItemOID="IT.MDE.IEDY.[SDTM_IE]_MDE_1" Mandatory="No" OrderNumber="16" Role="Timing"/>
      </ItemGroupDef>
      <ItemGroupDef Domain="IS" Name="IS" OID="IG.MDES.IS.[SDTM]_MDES_1" Purpose="Tabulation" Repeating="No" def:Class="FINDINGS" def:Structure="One record per test per visit per subject">
        <Description>
          <TranslatedText xml:lang="en">The Immunogenicity Specimen Assessments</TranslatedText>
        </Description>
        <ItemRef ItemOID="IT.MDE.STUDYID.[SDTM_IS]_MDE_1" Mandatory="Yes" OrderNumber="1" Role="Identifier"/>
        <ItemRef ItemOID="IT.MDE.DOMAIN.[SDTM_IS]_MDE_1" Mandatory="Yes" OrderNumber="2" Role="Identifier"/>
        <ItemRef ItemOID="IT.MDE.USUBJID.[SDTM_IS]_MDE_1" Mandatory="Yes" OrderNumber="3" Role="Identifier"/>
        <ItemRef ItemOID="IT.MDE.ISSEQ.[SDTM_IS]_MDE_1" Mandatory="Yes" OrderNumber="4" Role="Identifier"/>
        <ItemRef ItemOID="IT.MDE.ISGRPID.[SDTM_IS]_MDE_1" Mandatory="No" OrderNumber="5" Role="Identifier"/>
        <ItemRef ItemOID="IT.MDE.ISREFID.[SDTM_IS]_MDE_1" Mandatory="No" OrderNumber="6" Role="Identifier"/>
        <ItemRef ItemOID="IT.MDE.ISSPID.[SDTM_IS]_MDE_1" Mandatory="No" OrderNumber="7" Role="Identifier"/>
        <ItemRef ItemOID="IT.MDE.ISTESTCD.[SDTM_IS]_MDE_1" Mandatory="Yes" OrderNumber="8" Role="Identifier"/>
        <ItemRef ItemOID="IT.MDE.ISTEST.[SDTM_IS]_MDE_1" Mandatory="Yes" OrderNumber="9" Role="Topic"/>
        <ItemRef ItemOID="IT.MDE.ISCAT.[SDTM_IS]_MDE_1" Mandatory="No" OrderNumber="10" Role="Synonym Qualifier"/>
        <ItemRef ItemOID="IT.MDE.ISSCAT.[SDTM_IS]_MDE_1" Mandatory="No" OrderNumber="11" Role="Grouping Qualifier"/>
        <ItemRef ItemOID="IT.MDE.ISORRES.[SDTM_IS]_MDE_1" Mandatory="No" OrderNumber="12" Role="Result Qualifier"/>
        <ItemRef ItemOID="IT.MDE.ISORRESU.[SDTM_IS]_MDE_1" Mandatory="No" OrderNumber="13" Role="Variable Qualifier"/>
        <ItemRef ItemOID="IT.MDE.ISSTRESC.[SDTM_IS]_MDE_1" Mandatory="No" OrderNumber="14" Role="Result Qualifier"/>
        <ItemRef ItemOID="IT.MDE.ISSTRESN.[SDTM_IS]_MDE_1" Mandatory="No" OrderNumber="15" Role="Result Qualifier"/>
        <ItemRef ItemOID="IT.MDE.ISSTRESU.[SDTM_IS]_MDE_1" Mandatory="No" OrderNumber="16" Role="Variable Qualifier"/>
        <ItemRef ItemOID="IT.MDE.ISSTAT.[SDTM_IS]_MDE_1" Mandatory="No" OrderNumber="17" Role="Record Qualifier"/>
        <ItemRef ItemOID="IT.MDE.ISREASND.[SDTM_IS]_MDE_1" Mandatory="No" OrderNumber="18" Role="Record Qualifier"/>
        <ItemRef ItemOID="IT.MDE.ISNAM.[SDTM_IS]_MDE_1" Mandatory="No" OrderNumber="19" Role="Record Qualifier"/>
        <ItemRef ItemOID="IT.MDE.ISSPEC.[SDTM_IS]_MDE_1" Mandatory="No" OrderNumber="20" Role="Record Qualifier"/>
        <ItemRef ItemOID="IT.MDE.ISMETHOD.[SDTM_IS]_MDE_1" Mandatory="No" OrderNumber="21" Role="Record Qualifier"/>
        <ItemRef ItemOID="IT.MDE.ISBLFL.[SDTM_IS]_MDE_1" Mandatory="No" OrderNumber="22" Role="Record Qualifier"/>
        <ItemRef ItemOID="IT.MDE.ISLLOQ.[SDTM_IS]_MDE_1" Mandatory="No" OrderNumber="23" Role="Variable Qualifier"/>
        <ItemRef ItemOID="IT.MDE.VISITNUM.[SDTM_IS]_MDE_1" Mandatory="No" OrderNumber="24" Role="Timing"/>
        <ItemRef ItemOID="IT.MDE.VISIT.[SDTM_IS]_MDE_1" Mandatory="No" OrderNumber="25" Role="Timing"/>
        <ItemRef ItemOID="IT.MDE.VISITDY.[SDTM_IS]_MDE_1" Mandatory="No" OrderNumber="26" Role="Timing"/>
        <ItemRef ItemOID="IT.MDE.ISDTC.[SDTM_IS]_MDE_1" Mandatory="No" OrderNumber="27" Role="Timing"/>
        <ItemRef ItemOID="IT.MDE.ISDY.[SDTM_IS]_MDE_1" Mandatory="No" OrderNumber="28" Role="Timing"/>
      </ItemGroupDef>
      <ItemGroupDef Domain="LB" Name="LB" OID="IG.MDES.LB.[SDTM]_MDES_3" Purpose="Tabulation" Repeating="Yes" def:Class="FINDINGS" def:Structure="One record per lab test per time point per visit per subject">
        <Description>
          <TranslatedText xml:lang="en">Laboratory Test Findings</TranslatedText>
        </Description>
        <ItemRef ItemOID="IT.MDE.STUDYID.[SDTM_LB]_MDE_1" Mandatory="Yes" OrderNumber="1" Role="Identifier"/>
        <ItemRef ItemOID="IT.MDE.DOMAIN.[SDTM_LB]_MDE_1" Mandatory="Yes" OrderNumber="2" Role="Identifier"/>
        <ItemRef ItemOID="IT.MDE.USUBJID.[SDTM_LB]_MDE_1" Mandatory="Yes" OrderNumber="3" Role="Identifier"/>
        <ItemRef ItemOID="IT.MDE.LBSEQ.[SDTM_LB]_MDE_1" Mandatory="Yes" OrderNumber="4" Role="Identifier"/>
        <ItemRef ItemOID="IT.MDE.LBGRPID.[SDTM_LB]_MDE_1" Mandatory="No" OrderNumber="5" Role="Identifier"/>
        <ItemRef ItemOID="IT.MDE.LBREFID.[SDTM_LB]_MDE_1" Mandatory="No" OrderNumber="6" Role="Identifier"/>
        <ItemRef ItemOID="IT.MDE.LBSPID.[SDTM_LB]_MDE_2" Mandatory="No" OrderNumber="7" Role="Identifier"/>
        <ItemRef ItemOID="IT.MDE.LBTESTCD.[SDTM_LB]_MDE_2" Mandatory="Yes" OrderNumber="8" Role="Topic"/>
        <ItemRef ItemOID="IT.MDE.LBTEST.[SDTM_LB]_MDE_1" Mandatory="Yes" OrderNumber="9" Role="Synonym Qualifier"/>
        <ItemRef ItemOID="IT.MDE.LBCAT.[SDTM_LB]_MDE_1" Mandatory="No" OrderNumber="10" Role="Grouping Qualifier"/>
        <ItemRef ItemOID="IT.MDE.LBSCAT.[SDTM_LB]_MDE_1" Mandatory="No" OrderNumber="11" Role="Grouping Qualifier"/>
        <ItemRef ItemOID="IT.MDE.LBORRES.[SDTM_LB]_MDE_1" Mandatory="No" OrderNumber="12" Role="Result Qualifier"/>
        <ItemRef ItemOID="IT.MDE.LBORRESU.[SDTM_LB]_MDE_1" Mandatory="No" OrderNumber="13" Role="Variable Qualifier"/>
        <ItemRef ItemOID="IT.MDE.LBORNRLO.[SDTM_LB]_MDE_1" Mandatory="No" OrderNumber="14" Role="Variable Qualifier"/>
        <ItemRef ItemOID="IT.MDE.LBORNRHI.[SDTM_LB]_MDE_1" Mandatory="No" OrderNumber="15" Role="Variable Qualifier"/>
        <ItemRef ItemOID="IT.MDE.LBSTRESC.[SDTM_LB]_MDE_2" Mandatory="No" OrderNumber="16" Role="Result Qualifier"/>
        <ItemRef ItemOID="IT.MDE.LBSTRESN.[SDTM_LB]_MDE_1" Mandatory="No" OrderNumber="17" Role="Result Qualifier"/>
        <ItemRef ItemOID="IT.MDE.LBSTRESU.[SDTM_LB]_MDE_1" Mandatory="No" OrderNumber="18" Role="Variable Qualifier"/>
        <ItemRef ItemOID="IT.MDE.LBSTNRLO.[SDTM_LB]_MDE_1" Mandatory="No" OrderNumber="19" Role="Variable Qualifier"/>
        <ItemRef ItemOID="IT.MDE.LBSTNRHI.[SDTM_LB]_MDE_1" Mandatory="No" OrderNumber="20" Role="Variable Qualifier"/>
        <ItemRef ItemOID="IT.MDE.LBSTNRC.[SDTM_LB]_MDE_2" Mandatory="No" OrderNumber="21" Role="Variable Qualifier"/>
        <ItemRef ItemOID="IT.MDE.LBNRIND.[SDTM_LB]_MDE_2" Mandatory="No" OrderNumber="22" Role="Variable Qualifier"/>
        <ItemRef ItemOID="IT.MDE.LBSTAT.[SDTM_LB]_MDE_1" Mandatory="No" OrderNumber="23" Role="Record Qualifier"/>
        <ItemRef ItemOID="IT.MDE.LBREASND.[SDTM_LB]_MDE_1" Mandatory="No" OrderNumber="24" Role="Record Qualifier"/>
        <ItemRef ItemOID="IT.MDE.LBNAM.[SDTM_LB]_MDE_1" Mandatory="No" OrderNumber="25" Role="Record Qualifier"/>
        <ItemRef ItemOID="IT.MDE.LBLOINC.[SDTM_LB]_MDE_1" Mandatory="No" OrderNumber="26" Role="Synonym Qualifier"/>
        <ItemRef ItemOID="IT.MDE.LBSPEC.[SDTM_LB]_MDE_2" Mandatory="No" OrderNumber="27" Role="Record Qualifier"/>
        <ItemRef ItemOID="IT.MDE.LBSPCCND.[SDTM_LB]_MDE_2" Mandatory="No" OrderNumber="28" Role="Record Qualifier"/>
        <ItemRef ItemOID="IT.MDE.LBMETHOD.[SDTM_LB]_MDE_2" Mandatory="No" OrderNumber="29" Role="Record Qualifier"/>
        <ItemRef ItemOID="IT.MDE.LBBLFL.[SDTM_LB]_MDE_2" Mandatory="No" OrderNumber="30" Role="Record Qualifier"/>
        <ItemRef ItemOID="IT.MDE.LBFAST.[SDTM_LB]_MDE_1" Mandatory="No" OrderNumber="31" Role="Record Qualifier"/>
        <ItemRef ItemOID="IT.MDE.LBDRVFL.[SDTM_LB]_MDE_1" Mandatory="No" OrderNumber="32" Role="Record Qualifier"/>
        <ItemRef ItemOID="IT.MDE.LBTOX.[SDTM_LB]_MDE_1" Mandatory="No" OrderNumber="33" Role="Variable Qualifier"/>
        <ItemRef ItemOID="IT.MDE.LBTOXGR.[SDTM_LB]_MDE_3" Mandatory="No" OrderNumber="34" Role="Variable Qualifier"/>
        <ItemRef ItemOID="IT.MDE.VISITNUM.[SDTM_LB]_MDE_1" Mandatory="No" OrderNumber="35" Role="Timing"/>
        <ItemRef ItemOID="IT.MDE.VISIT.[SDTM_LB]_MDE_1" Mandatory="No" OrderNumber="36" Role="Timing"/>
        <ItemRef ItemOID="IT.MDE.VISITDY.[SDTM_LB]_MDE_1" Mandatory="No" OrderNumber="37" Role="Timing"/>
        <ItemRef ItemOID="IT.MDE.LBDTC.[SDTM_LB]_MDE_1" Mandatory="No" OrderNumber="38" Role="Timing"/>
        <ItemRef ItemOID="IT.MDE.LBENDTC.[SDTM_LB]_MDE_1" Mandatory="No" OrderNumber="39" Role="Timing"/>
        <ItemRef ItemOID="IT.MDE.LBDY.[SDTM_LB]_MDE_1" Mandatory="No" OrderNumber="40" Role="Timing"/>
        <ItemRef ItemOID="IT.MDE.LBTPT.[SDTM_LB]_MDE_2" Mandatory="No" OrderNumber="41" Role="Timing"/>
        <ItemRef ItemOID="IT.MDE.LBTPTNUM.[SDTM_LB]_MDE_1" Mandatory="No" OrderNumber="42" Role="Timing"/>
        <ItemRef ItemOID="IT.MDE.LBELTM.[SDTM_LB]_MDE_2" Mandatory="No" OrderNumber="43" Role="Timing"/>
        <ItemRef ItemOID="IT.MDE.LBTPTREF.[SDTM_LB]_MDE_1" Mandatory="No" OrderNumber="44" Role="Timing"/>
        <ItemRef ItemOID="IT.MDE.LBRFTDTC.[SDTM_LB]_MDE_1" Mandatory="No" OrderNumber="45" Role="Timing"/>
      </ItemGroupDef>
      <ItemGroupDef Domain="MB" Name="MB" OID="IG.MDES.MB.[SDTM]_MDES_3" Purpose="Tabulation" Repeating="Yes" def:Class="FINDINGS" def:Structure="One record per microbiology specimen finding per time point per visit per subject">
        <Description>
          <TranslatedText xml:lang="en">Microbiology Specimen</TranslatedText>
        </Description>
        <ItemRef ItemOID="IT.MDE.STUDYID.[SDTM_MB]_MDE_1" Mandatory="Yes" OrderNumber="1" Role="Identifier"/>
        <ItemRef ItemOID="IT.MDE.DOMAIN.[SDTM_MB]_MDE_1" Mandatory="Yes" OrderNumber="2" Role="Identifier"/>
        <ItemRef ItemOID="IT.MDE.USUBJID.[SDTM_MB]_MDE_1" Mandatory="Yes" OrderNumber="3" Role="Identifier"/>
        <ItemRef ItemOID="IT.MDE.MBSEQ.[SDTM_MB]_MDE_1" Mandatory="Yes" OrderNumber="4" Role="Identifier"/>
        <ItemRef ItemOID="IT.MDE.MBGRPID.[SDTM_MB]_MDE_1" Mandatory="No" OrderNumber="5" Role="Identifier"/>
        <ItemRef ItemOID="IT.MDE.MBREFID.[SDTM_MB]_MDE_1" Mandatory="No" OrderNumber="6" Role="Identifier"/>
        <ItemRef ItemOID="IT.MDE.MBSPID.[SDTM_MB]_MDE_1" Mandatory="No" OrderNumber="7" Role="Identifier"/>
        <ItemRef ItemOID="IT.MDE.MBTESTCD.[SDTM_MB]_MDE_2" Mandatory="Yes" OrderNumber="8" Role="Topic"/>
        <ItemRef ItemOID="IT.MDE.MBTEST.[SDTM_MB]_MDE_1" Mandatory="Yes" OrderNumber="9" Role="Synonym Qualifier"/>
        <ItemRef ItemOID="IT.MDE.MBCAT.[SDTM_MB]_MDE_1" Mandatory="No" OrderNumber="10" Role="Grouping Qualifier"/>
        <ItemRef ItemOID="IT.MDE.MBSCAT.[SDTM_MB]_MDE_1" Mandatory="No" OrderNumber="11" Role="Grouping Qualifier"/>
        <ItemRef ItemOID="IT.MDE.MBORRES.[SDTM_MB]_MDE_2" Mandatory="No" OrderNumber="12" Role="Result Qualifier"/>
        <ItemRef ItemOID="IT.MDE.MBORRESU.[SDTM_MB]_MDE_1" Mandatory="No" OrderNumber="13" Role="Variable Qualifier"/>
        <ItemRef ItemOID="IT.MDE.MBSTRESC.[SDTM_MB]_MDE_2" Mandatory="No" OrderNumber="14" Role="Result Qualifier"/>
        <ItemRef ItemOID="IT.MDE.MBSTRESN.[SDTM_MB]_MDE_1" Mandatory="No" OrderNumber="15" Role="Result Qualifier"/>
        <ItemRef ItemOID="IT.MDE.MBSTRESU.[SDTM_MB]_MDE_1" Mandatory="No" OrderNumber="16" Role="Variable Qualifier"/>
        <ItemRef ItemOID="IT.MDE.MBRESCAT.[SDTM_MB]_MDE_1" Mandatory="No" OrderNumber="17" Role="Variable Qualifier"/>
        <ItemRef ItemOID="IT.MDE.MBSTAT.[SDTM_MB]_MDE_1" Mandatory="No" OrderNumber="18" Role="Record Qualifier"/>
        <ItemRef ItemOID="IT.MDE.MBREASND.[SDTM_MB]_MDE_1" Mandatory="No" OrderNumber="19" Role="Record Qualifier"/>
        <ItemRef ItemOID="IT.MDE.MBNAM.[SDTM_MB]_MDE_1" Mandatory="No" OrderNumber="20" Role="Record Qualifier"/>
        <ItemRef ItemOID="IT.MDE.MBLOINC.[SDTM_MB]_MDE_1" Mandatory="No" OrderNumber="21" Role="Synonym Qualifier"/>
        <ItemRef ItemOID="IT.MDE.MBSPEC.[SDTM_MB]_MDE_2" Mandatory="No" OrderNumber="22" Role="Record Qualifier"/>
        <ItemRef ItemOID="IT.MDE.MBSPCCND.[SDTM_MB]_MDE_2" Mandatory="No" OrderNumber="23" Role="Record Qualifier"/>
        <ItemRef ItemOID="IT.MDE.MBLOC.[SDTM_MB]_MDE_2" Mandatory="No" OrderNumber="24" Role="Record Qualifier"/>
        <ItemRef ItemOID="IT.MDE.MBMETHOD.[SDTM_MB]_MDE_2" Mandatory="No" OrderNumber="25" Role="Record Qualifier"/>
        <ItemRef ItemOID="IT.MDE.MBBLFL.[SDTM_MB]_MDE_2" Mandatory="No" OrderNumber="26" Role="Record Qualifier"/>
        <ItemRef ItemOID="IT.MDE.MBDRVFL.[SDTM_MB]_MDE_1" Mandatory="No" OrderNumber="27" Role="Record Qualifier"/>
        <ItemRef ItemOID="IT.MDE.VISITNUM.[SDTM_MB]_MDE_1" Mandatory="No" OrderNumber="28" Role="Timing"/>
        <ItemRef ItemOID="IT.MDE.VISIT.[SDTM_MB]_MDE_1" Mandatory="No" OrderNumber="29" Role="Timing"/>
        <ItemRef ItemOID="IT.MDE.VISITDY.[SDTM_MB]_MDE_1" Mandatory="No" OrderNumber="30" Role="Timing"/>
        <ItemRef ItemOID="IT.MDE.MBDTC.[SDTM_MB]_MDE_1" Mandatory="No" OrderNumber="31" Role="Timing"/>
        <ItemRef ItemOID="IT.MDE.MBDY.[SDTM_MB]_MDE_1" Mandatory="No" OrderNumber="32" Role="Timing"/>
        <ItemRef ItemOID="IT.MDE.MBTPT.[SDTM_MB]_MDE_1" Mandatory="No" OrderNumber="33" Role="Timing"/>
        <ItemRef ItemOID="IT.MDE.MBTPTNUM.[SDTM_MB]_MDE_1" Mandatory="No" OrderNumber="34" Role="Timing"/>
        <ItemRef ItemOID="IT.MDE.MBELTM.[SDTM_MB]_MDE_2" Mandatory="No" OrderNumber="35" Role="Timing"/>
        <ItemRef ItemOID="IT.MDE.MBTPTREF.[SDTM_MB]_MDE_1" Mandatory="No" OrderNumber="36" Role="Timing"/>
        <ItemRef ItemOID="IT.MDE.MBRFTDTC.[SDTM_MB]_MDE_1" Mandatory="No" OrderNumber="37" Role="Timing"/>
      </ItemGroupDef>
      <ItemGroupDef Domain="MS" Name="MS" OID="IG.MDES.MS.[SDTM]_MDES_3" Purpose="Tabulation" Repeating="Yes" def:Class="FINDINGS" def:Structure="One record per microbiology susceptibility test (or other organism-related finding) per organism found in MB">
        <Description>
          <TranslatedText xml:lang="en">Microbiology Susceptibility</TranslatedText>
        </Description>
        <ItemRef ItemOID="IT.MDE.STUDYID.[SDTM_MS]_MDE_1" Mandatory="Yes" OrderNumber="1" Role="Identifier"/>
        <ItemRef ItemOID="IT.MDE.DOMAIN.[SDTM_MS]_MDE_1" Mandatory="Yes" OrderNumber="2" Role="Identifier"/>
        <ItemRef ItemOID="IT.MDE.USUBJID.[SDTM_MS]_MDE_1" Mandatory="Yes" OrderNumber="3" Role="Identifier"/>
        <ItemRef ItemOID="IT.MDE.MSSEQ.[SDTM_MS]_MDE_1" Mandatory="Yes" OrderNumber="4" Role="Identifier"/>
        <ItemRef ItemOID="IT.MDE.MSGRPID.[SDTM_MS]_MDE_1" Mandatory="Yes" OrderNumber="5" Role="Identifier"/>
        <ItemRef ItemOID="IT.MDE.MSREFID.[SDTM_MS]_MDE_1" Mandatory="No" OrderNumber="6" Role="Identifier"/>
        <ItemRef ItemOID="IT.MDE.MSSPID.[SDTM_MS]_MDE_1" Mandatory="No" OrderNumber="7" Role="Identifier"/>
        <ItemRef ItemOID="IT.MDE.MSTESTCD.[SDTM_MS]_MDE_2" Mandatory="Yes" OrderNumber="8" Role="Topic"/>
        <ItemRef ItemOID="IT.MDE.MSTEST.[SDTM_MS]_MDE_1" Mandatory="Yes" OrderNumber="9" Role="Synonym Qualifier"/>
        <ItemRef ItemOID="IT.MDE.MSCAT.[SDTM_MS]_MDE_1" Mandatory="Yes" OrderNumber="10" Role="Grouping Qualifier"/>
        <ItemRef ItemOID="IT.MDE.MSSCAT.[SDTM_MS]_MDE_1" Mandatory="No" OrderNumber="11" Role="Grouping Qualifier"/>
        <ItemRef ItemOID="IT.MDE.MSORRES.[SDTM_MS]_MDE_1" Mandatory="No" OrderNumber="12" Role="Result Qualifier"/>
        <ItemRef ItemOID="IT.MDE.MSORRESU.[SDTM_MS]_MDE_1" Mandatory="No" OrderNumber="13" Role="Variable Qualifier"/>
        <ItemRef ItemOID="IT.MDE.MSSTRESC.[SDTM_MS]_MDE_2" Mandatory="No" OrderNumber="14" Role="Result Qualifier"/>
        <ItemRef ItemOID="IT.MDE.MSSTRESN.[SDTM_MS]_MDE_1" Mandatory="No" OrderNumber="15" Role="Result Qualifier"/>
        <ItemRef ItemOID="IT.MDE.MSSTRESU.[SDTM_MS]_MDE_1" Mandatory="No" OrderNumber="16" Role="Variable Qualifier"/>
        <ItemRef ItemOID="IT.MDE.MSRESCAT.[SDTM_MS]_MDE_2" Mandatory="No" OrderNumber="17" Role="Variable Qualifier"/>
        <ItemRef ItemOID="IT.MDE.MSSTAT.[SDTM_MS]_MDE_1" Mandatory="No" OrderNumber="18" Role="Record Qualifier"/>
        <ItemRef ItemOID="IT.MDE.MSREASND.[SDTM_MS]_MDE_1" Mandatory="No" OrderNumber="19" Role="Record Qualifier"/>
        <ItemRef ItemOID="IT.MDE.MSNAM.[SDTM_MS]_MDE_1" Mandatory="No" OrderNumber="20" Role="Record Qualifier"/>
        <ItemRef ItemOID="IT.MDE.MSLOINC.[SDTM_MS]_MDE_1" Mandatory="No" OrderNumber="21" Role="Synonym Qualifier"/>
        <ItemRef ItemOID="IT.MDE.MSMETHOD.[SDTM_MS]_MDE_2" Mandatory="No" OrderNumber="22" Role="Record Qualifier"/>
        <ItemRef ItemOID="IT.MDE.MSBLFL.[SDTM_MS]_MDE_2" Mandatory="No" OrderNumber="23" Role="Record Qualifier"/>
        <ItemRef ItemOID="IT.MDE.MSDRVFL.[SDTM_MS]_MDE_1" Mandatory="No" OrderNumber="24" Role="Record Qualifier"/>
        <ItemRef ItemOID="IT.MDE.VISITNUM.[SDTM_MS]_MDE_1" Mandatory="No" OrderNumber="25" Role="Timing"/>
        <ItemRef ItemOID="IT.MDE.VISIT.[SDTM_MS]_MDE_1" Mandatory="No" OrderNumber="26" Role="Timing"/>
        <ItemRef ItemOID="IT.MDE.VISITDY.[SDTM_MS]_MDE_1" Mandatory="No" OrderNumber="27" Role="Timing"/>
        <ItemRef ItemOID="IT.MDE.MSDTC.[SDTM_MS]_MDE_1" Mandatory="No" OrderNumber="28" Role="Timing"/>
        <ItemRef ItemOID="IT.MDE.MSDY.[SDTM_MS]_MDE_1" Mandatory="No" OrderNumber="29" Role="Timing"/>
        <ItemRef ItemOID="IT.MDE.MSTPT.[SDTM_MS]_MDE_1" Mandatory="No" OrderNumber="30" Role="Timing"/>
        <ItemRef ItemOID="IT.MDE.MSTPTNUM.[SDTM_MS]_MDE_1" Mandatory="No" OrderNumber="31" Role="Timing"/>
        <ItemRef ItemOID="IT.MDE.MSELTM.[SDTM_MS]_MDE_2" Mandatory="No" OrderNumber="32" Role="Timing"/>
        <ItemRef ItemOID="IT.MDE.MSTPTREF.[SDTM_MS]_MDE_1" Mandatory="No" OrderNumber="33" Role="Timing"/>
      </ItemGroupDef>
      <ItemGroupDef Domain="MI" Name="MI" OID="IG.MDES.MI.[SDTM]_MDES_1" Purpose="Tabulation" Repeating="Yes" def:Class="FINDINGS" def:Structure="One record per finding per specimen per subject">
        <Description>
          <TranslatedText xml:lang="en">Microscopic Findings</TranslatedText>
        </Description>
        <ItemRef ItemOID="IT.MDE.STUDYID.[SDTM_MI]_MDE_1" Mandatory="Yes" OrderNumber="1" Role="Identifier"/>
        <ItemRef ItemOID="IT.MDE.DOMAIN.[SDTM_MI]_MDE_1" Mandatory="Yes" OrderNumber="2" Role="Identifier"/>
        <ItemRef ItemOID="IT.MDE.USUBJID.[SDTM_MI]_MDE_1" Mandatory="Yes" OrderNumber="3" Role="Identifier"/>
        <ItemRef ItemOID="IT.MDE.MISEQ.[SDTM_MI]_MDE_1" Mandatory="Yes" OrderNumber="4" Role="Identifier"/>
        <ItemRef ItemOID="IT.MDE.MIGRPID.[SDTM_MI]_MDE_1" Mandatory="No" OrderNumber="5" Role="Identifier"/>
        <ItemRef ItemOID="IT.MDE.MIREFID.[SDTM_MI]_MDE_1" Mandatory="No" OrderNumber="6" Role="Identifier"/>
        <ItemRef ItemOID="IT.MDE.MISPID.[SDTM_MI]_MDE_1" Mandatory="No" OrderNumber="7" Role="Identifier"/>
        <ItemRef ItemOID="IT.MDE.MITESTCD.[SDTM_MI]_MDE_1" Mandatory="Yes" OrderNumber="8" Role="Topic"/>
        <ItemRef ItemOID="IT.MDE.MITEST.[SDTM_MI]_MDE_1" Mandatory="Yes" OrderNumber="9" Role="Synonym Qualifier"/>
        <ItemRef ItemOID="IT.MDE.MITSTDTL.[SDTM_MI]_MDE_1" Mandatory="No" OrderNumber="10" Role="Record Qualifier"/>
        <ItemRef ItemOID="IT.MDE.MICAT.[SDTM_MI]_MDE_1" Mandatory="No" OrderNumber="11" Role="Grouping Qualifier"/>
        <ItemRef ItemOID="IT.MDE.MISCAT.[SDTM_MI]_MDE_1" Mandatory="No" OrderNumber="12" Role="Grouping Qualifier"/>
        <ItemRef ItemOID="IT.MDE.MIORRES.[SDTM_MI]_MDE_1" Mandatory="No" OrderNumber="13" Role="Result Qualifier"/>
        <ItemRef ItemOID="IT.MDE.MIORRESU.[SDTM_MI]_MDE_1" Mandatory="No" OrderNumber="14" Role="Variable Qualifier"/>
        <ItemRef ItemOID="IT.MDE.MISTRESC.[SDTM_MI]_MDE_1" Mandatory="No" OrderNumber="15" Role="Result Qualifier"/>
        <ItemRef ItemOID="IT.MDE.MISTRESN.[SDTM_MI]_MDE_1" Mandatory="No" OrderNumber="16" Role="Result Qualifier"/>
        <ItemRef ItemOID="IT.MDE.MISTRESU.[SDTM_MI]_MDE_1" Mandatory="No" OrderNumber="17" Role="Variable Qualifier"/>
        <ItemRef ItemOID="IT.MDE.MIRESCAT.[SDTM_MI]_MDE_1" Mandatory="No" OrderNumber="18" Role="Result Qualifier"/>
        <ItemRef ItemOID="IT.MDE.MISTAT.[SDTM_MI]_MDE_1" Mandatory="No" OrderNumber="19" Role="Record Qualifier"/>
        <ItemRef ItemOID="IT.MDE.MIREASND.[SDTM_MI]_MDE_1" Mandatory="No" OrderNumber="20" Role="Record Qualifier"/>
        <ItemRef ItemOID="IT.MDE.MINAM.[SDTM_MI]_MDE_1" Mandatory="No" OrderNumber="21" Role="Record Qualifier"/>
        <ItemRef ItemOID="IT.MDE.MISPEC.[SDTM_MI]_MDE_1" Mandatory="Yes" OrderNumber="22" Role="Record Qualifier"/>
        <ItemRef ItemOID="IT.MDE.MISPCCND.[SDTM_MI]_MDE_1" Mandatory="No" OrderNumber="23" Role="Variable Qualifier"/>
        <ItemRef ItemOID="IT.MDE.MILOC.[SDTM_MI]_MDE_1" Mandatory="No" OrderNumber="24" Role="Record Qualifier"/>
        <ItemRef ItemOID="IT.MDE.MILAT.[SDTM_MI]_MDE_1" Mandatory="No" OrderNumber="25" Role="Variable Qualifier"/>
        <ItemRef ItemOID="IT.MDE.MIDIR.[SDTM_MI]_MDE_1" Mandatory="No" OrderNumber="26" Role="Variable Qualifier"/>
        <ItemRef ItemOID="IT.MDE.MIMETHOD.[SDTM_MI]_MDE_1" Mandatory="No" OrderNumber="27" Role="Record Qualifier"/>
        <ItemRef ItemOID="IT.MDE.MIBLFL.[SDTM_MI]_MDE_1" Mandatory="No" OrderNumber="28" Role="Record Qualifier"/>
        <ItemRef ItemOID="IT.MDE.MIEVAL.[SDTM_MI]_MDE_1" Mandatory="No" OrderNumber="29" Role="Record Qualifier"/>
        <ItemRef ItemOID="IT.MDE.VISITNUM.[SDTM_MI]_MDE_1" Mandatory="No" OrderNumber="30" Role="Timing"/>
        <ItemRef ItemOID="IT.MDE.VISIT.[SDTM_MI]_MDE_1" Mandatory="No" OrderNumber="31" Role="Timing"/>
        <ItemRef ItemOID="IT.MDE.VISITDY.[SDTM_MI]_MDE_1" Mandatory="No" OrderNumber="32" Role="Timing"/>
        <ItemRef ItemOID="IT.MDE.MIDTC.[SDTM_MI]_MDE_1" Mandatory="No" OrderNumber="33" Role="Timing"/>
        <ItemRef ItemOID="IT.MDE.MIDY.[SDTM_MI]_MDE_1" Mandatory="No" OrderNumber="34" Role="Timing"/>
      </ItemGroupDef>
      <ItemGroupDef Domain="MO" Name="MO" OID="IG.MDES.MO.[SDTM]_MDES_1" Purpose="Tabulation" Repeating="Yes" def:Class="FINDINGS" def:Structure="One record per Morphology finding per location per time point per visit per subject">
        <Description>
          <TranslatedText xml:lang="en">Morphology</TranslatedText>
        </Description>
        <ItemRef ItemOID="IT.MDE.STUDYID.[SDTM_MO]_MDE_1" Mandatory="Yes" OrderNumber="1" Role="Identifier"/>
        <ItemRef ItemOID="IT.MDE.DOMAIN.[SDTM_MO]_MDE_1" Mandatory="Yes" OrderNumber="2" Role="Identifier"/>
        <ItemRef ItemOID="IT.MDE.USUBJID.[SDTM_MO]_MDE_1" Mandatory="Yes" OrderNumber="3" Role="Identifier"/>
        <ItemRef ItemOID="IT.MDE.MOSEQ.[SDTM_MO]_MDE_1" Mandatory="Yes" OrderNumber="4" Role="Identifier"/>
        <ItemRef ItemOID="IT.MDE.MOGRPID.[SDTM_MO]_MDE_1" Mandatory="No" OrderNumber="5" Role="Identifier"/>
        <ItemRef ItemOID="IT.MDE.MOREFID.[SDTM_MO]_MDE_1" Mandatory="No" OrderNumber="6" Role="Identifier"/>
        <ItemRef ItemOID="IT.MDE.MOSPID.[SDTM_MO]_MDE_1" Mandatory="No" OrderNumber="7" Role="Identifier"/>
        <ItemRef ItemOID="IT.MDE.MOLNKID.[SDTM_MO]_MDE_1" Mandatory="No" OrderNumber="8" Role="Identifier"/>
        <ItemRef ItemOID="IT.MDE.MOTESTCD.[SDTM_MO]_MDE_1" Mandatory="Yes" OrderNumber="9" Role="Topic"/>
        <ItemRef ItemOID="IT.MDE.MOTEST.[SDTM_MO]_MDE_1" Mandatory="Yes" OrderNumber="10" Role="Synonym Qualifier"/>
        <ItemRef ItemOID="IT.MDE.MOCAT.[SDTM_MO]_MDE_1" Mandatory="No" OrderNumber="11" Role="Grouping Qualifier"/>
        <ItemRef ItemOID="IT.MDE.MOSCAT.[SDTM_MO]_MDE_1" Mandatory="No" OrderNumber="12" Role="Grouping Qualifier"/>
        <ItemRef ItemOID="IT.MDE.MOPOS.[SDTM_MO]_MDE_1" Mandatory="No" OrderNumber="13" Role="Record Qualifier"/>
        <ItemRef ItemOID="IT.MDE.MOORRES.[SDTM_MO]_MDE_1" Mandatory="No" OrderNumber="14" Role="Result Qualifier"/>
        <ItemRef ItemOID="IT.MDE.MOORRESU.[SDTM_MO]_MDE_1" Mandatory="No" OrderNumber="15" Role="Variable Qualifier"/>
        <ItemRef ItemOID="IT.MDE.MOSTRESC.[SDTM_MO]_MDE_1" Mandatory="No" OrderNumber="16" Role="Result Qualifier"/>
        <ItemRef ItemOID="IT.MDE.MOSTRESN.[SDTM_MO]_MDE_1" Mandatory="No" OrderNumber="17" Role="Result Qualifier"/>
        <ItemRef ItemOID="IT.MDE.MOSTRESU.[SDTM_MO]_MDE_1" Mandatory="No" OrderNumber="18" Role="Variable Qualifier"/>
        <ItemRef ItemOID="IT.MDE.MOSTAT.[SDTM_MO]_MDE_1" Mandatory="No" OrderNumber="19" Role="Record Qualifier"/>
        <ItemRef ItemOID="IT.MDE.MOREASND.[SDTM_MO]_MDE_1" Mandatory="No" OrderNumber="20" Role="Record Qualifier"/>
        <ItemRef ItemOID="IT.MDE.MOXFN.[SDTM_MO]_MDE_1" Mandatory="No" OrderNumber="21" Role="Record Qualifier"/>
        <ItemRef ItemOID="IT.MDE.MONAM.[SDTM_MO]_MDE_1" Mandatory="No" OrderNumber="22" Role="Record Qualifier"/>
        <ItemRef ItemOID="IT.MDE.MOLOC.[SDTM_MO]_MDE_1" Mandatory="No" OrderNumber="23" Role="Record Qualifier"/>
        <ItemRef ItemOID="IT.MDE.MOLAT.[SDTM_MO]_MDE_1" Mandatory="No" OrderNumber="24" Role="Variable Qualifier"/>
        <ItemRef ItemOID="IT.MDE.MODIR.[SDTM_MO]_MDE_1" Mandatory="No" OrderNumber="25" Role="Variable Qualifier"/>
        <ItemRef ItemOID="IT.MDE.MOPORTOT.[SDTM_MO]_MDE_1" Mandatory="No" OrderNumber="26" Role="Variable Qualifier"/>
        <ItemRef ItemOID="IT.MDE.MOMETHOD.[SDTM_MO]_MDE_1" Mandatory="No" OrderNumber="27" Role="Record Qualifier"/>
        <ItemRef ItemOID="IT.MDE.MOANMETH.[SDTM_MO]_MDE_1" Mandatory="No" OrderNumber="28" Role="Record Qualifier"/>
        <ItemRef ItemOID="IT.MDE.MOBLFL.[SDTM_MO]_MDE_1" Mandatory="No" OrderNumber="29" Role="Record Qualifier"/>
        <ItemRef ItemOID="IT.MDE.MODRVFL.[SDTM_MO]_MDE_1" Mandatory="No" OrderNumber="30" Role="Record Qualifier"/>
        <ItemRef ItemOID="IT.MDE.MOEVAL.[SDTM_MO]_MDE_1" Mandatory="No" OrderNumber="31" Role="Record Qualifier"/>
        <ItemRef ItemOID="IT.MDE.VISITNUM.[SDTM_MO]_MDE_1" Mandatory="No" OrderNumber="32" Role="Timing"/>
        <ItemRef ItemOID="IT.MDE.VISIT.[SDTM_MO]_MDE_1" Mandatory="No" OrderNumber="33" Role="Timing"/>
        <ItemRef ItemOID="IT.MDE.VISITDY.[SDTM_MO]_MDE_1" Mandatory="No" OrderNumber="34" Role="Timing"/>
        <ItemRef ItemOID="IT.MDE.MODTC.[SDTM_MO]_MDE_1" Mandatory="No" OrderNumber="35" Role="Timing"/>
        <ItemRef ItemOID="IT.MDE.MODY.[SDTM_MO]_MDE_1" Mandatory="No" OrderNumber="36" Role="Timing"/>
        <ItemRef ItemOID="IT.MDE.MOTPT.[SDTM_MO]_MDE_1" Mandatory="No" OrderNumber="37" Role="Timing"/>
        <ItemRef ItemOID="IT.MDE.MOTPTNUM.[SDTM_MO]_MDE_1" Mandatory="No" OrderNumber="38" Role="Timing"/>
        <ItemRef ItemOID="IT.MDE.MOELTM.[SDTM_MO]_MDE_1" Mandatory="No" OrderNumber="39" Role="Timing"/>
        <ItemRef ItemOID="IT.MDE.MOTPTREF.[SDTM_MO]_MDE_1" Mandatory="No" OrderNumber="40" Role="Timing"/>
        <ItemRef ItemOID="IT.MDE.MORFTDTC.[SDTM_MO]_MDE_1" Mandatory="No" OrderNumber="41" Role="Timing"/>
      </ItemGroupDef>
      <ItemGroupDef Domain="PC" Name="PC" OID="IG.MDES.PC.[SDTM]_MDES_3" Purpose="Tabulation" Repeating="Yes" def:Class="FINDINGS" def:Structure="One record per sample characteristic or time-point concentration per reference time point or per analyte per subject">
        <Description>
          <TranslatedText xml:lang="en">Pharmacokinetics Concentrations</TranslatedText>
        </Description>
        <ItemRef ItemOID="IT.MDE.STUDYID.[SDTM_PC]_MDE_1" Mandatory="Yes" OrderNumber="1" Role="Identifier"/>
        <ItemRef ItemOID="IT.MDE.DOMAIN.[SDTM_PC]_MDE_1" Mandatory="Yes" OrderNumber="2" Role="Identifier"/>
        <ItemRef ItemOID="IT.MDE.USUBJID.[SDTM_PC]_MDE_1" Mandatory="Yes" OrderNumber="3" Role="Identifier"/>
        <ItemRef ItemOID="IT.MDE.PCSEQ.[SDTM_PC]_MDE_1" Mandatory="Yes" OrderNumber="4" Role="Identifier"/>
        <ItemRef ItemOID="IT.MDE.PCGRPID.[SDTM_PC]_MDE_1" Mandatory="No" OrderNumber="5" Role="Identifier"/>
        <ItemRef ItemOID="IT.MDE.PCREFID.[SDTM_PC]_MDE_1" Mandatory="No" OrderNumber="6" Role="Identifier"/>
        <ItemRef ItemOID="IT.MDE.PCSPID.[SDTM_PC]_MDE_1" Mandatory="No" OrderNumber="7" Role="Identifier"/>
        <ItemRef ItemOID="IT.MDE.PCTESTCD.[SDTM_PC]_MDE_2" Mandatory="Yes" OrderNumber="8" Role="Topic"/>
        <ItemRef ItemOID="IT.MDE.PCTEST.[SDTM_PC]_MDE_1" Mandatory="Yes" OrderNumber="9" Role="Synonym Qualifier"/>
        <ItemRef ItemOID="IT.MDE.PCCAT.[SDTM_PC]_MDE_1" Mandatory="No" OrderNumber="10" Role="Grouping Qualifier"/>
        <ItemRef ItemOID="IT.MDE.PCSCAT.[SDTM_PC]_MDE_1" Mandatory="No" OrderNumber="11" Role="Grouping Qualifier"/>
        <ItemRef ItemOID="IT.MDE.PCORRES.[SDTM_PC]_MDE_1" Mandatory="No" OrderNumber="12" Role="Result Qualifier"/>
        <ItemRef ItemOID="IT.MDE.PCORRESU.[SDTM_PC]_MDE_1" Mandatory="No" OrderNumber="13" Role="Variable Qualifier"/>
        <ItemRef ItemOID="IT.MDE.PCSTRESC.[SDTM_PC]_MDE_2" Mandatory="No" OrderNumber="14" Role="Result Qualifier"/>
        <ItemRef ItemOID="IT.MDE.PCSTRESN.[SDTM_PC]_MDE_1" Mandatory="No" OrderNumber="15" Role="Result Qualifier"/>
        <ItemRef ItemOID="IT.MDE.PCSTRESU.[SDTM_PC]_MDE_1" Mandatory="No" OrderNumber="16" Role="Variable Qualifier"/>
        <ItemRef ItemOID="IT.MDE.PCSTAT.[SDTM_PC]_MDE_1" Mandatory="No" OrderNumber="17" Role="Record Qualifier"/>
        <ItemRef ItemOID="IT.MDE.PCREASND.[SDTM_PC]_MDE_1" Mandatory="No" OrderNumber="18" Role="Record Qualifier"/>
        <ItemRef ItemOID="IT.MDE.PCNAM.[SDTM_PC]_MDE_1" Mandatory="No" OrderNumber="19" Role="Record Qualifier"/>
        <ItemRef ItemOID="IT.MDE.PCSPEC.[SDTM_PC]_MDE_2" Mandatory="No" OrderNumber="20" Role="Record Qualifier"/>
        <ItemRef ItemOID="IT.MDE.PCSPCCND.[SDTM_PC]_MDE_2" Mandatory="No" OrderNumber="21" Role="Record Qualifier"/>
        <ItemRef ItemOID="IT.MDE.PCMETHOD.[SDTM_PC]_MDE_2" Mandatory="No" OrderNumber="22" Role="Record Qualifier"/>
        <ItemRef ItemOID="IT.MDE.PCFAST.[SDTM_PC]_MDE_1" Mandatory="No" OrderNumber="23" Role="Record Qualifier"/>
        <ItemRef ItemOID="IT.MDE.PCDRVFL.[SDTM_PC]_MDE_2" Mandatory="No" OrderNumber="24" Role="Record Qualifier"/>
        <ItemRef ItemOID="IT.MDE.PCLLOQ.[SDTM_PC]_MDE_1" Mandatory="No" OrderNumber="25" Role="Variable Qualifier"/>
        <ItemRef ItemOID="IT.MDE.PCULOQ.[SDTM_PC]_MDE_1" Mandatory="No" OrderNumber="26" Role="Variable Qualifier"/>
        <ItemRef ItemOID="IT.MDE.VISITNUM.[SDTM_PC]_MDE_1" Mandatory="No" OrderNumber="27" Role="Timing"/>
        <ItemRef ItemOID="IT.MDE.VISIT.[SDTM_PC]_MDE_1" Mandatory="No" OrderNumber="28" Role="Timing"/>
        <ItemRef ItemOID="IT.MDE.VISITDY.[SDTM_PC]_MDE_1" Mandatory="No" OrderNumber="29" Role="Timing"/>
        <ItemRef ItemOID="IT.MDE.PCDTC.[SDTM_PC]_MDE_1" Mandatory="No" OrderNumber="30" Role="Timing"/>
        <ItemRef ItemOID="IT.MDE.PCENDTC.[SDTM_PC]_MDE_1" Mandatory="No" OrderNumber="31" Role="Timing"/>
        <ItemRef ItemOID="IT.MDE.PCDY.[SDTM_PC]_MDE_1" Mandatory="No" OrderNumber="32" Role="Timing"/>
        <ItemRef ItemOID="IT.MDE.PCTPT.[SDTM_PC]_MDE_1" Mandatory="No" OrderNumber="33" Role="Timing"/>
        <ItemRef ItemOID="IT.MDE.PCTPTNUM.[SDTM_PC]_MDE_1" Mandatory="No" OrderNumber="34" Role="Timing"/>
        <ItemRef ItemOID="IT.MDE.PCELTM.[SDTM_PC]_MDE_2" Mandatory="No" OrderNumber="35" Role="Timing"/>
        <ItemRef ItemOID="IT.MDE.PCTPTREF.[SDTM_PC]_MDE_1" Mandatory="No" OrderNumber="36" Role="Timing"/>
        <ItemRef ItemOID="IT.MDE.PCRFTDTC.[SDTM_PC]_MDE_1" Mandatory="No" OrderNumber="37" Role="Timing"/>
        <ItemRef ItemOID="IT.MDE.PCEVLINT.[SDTM_PC]_MDE_1" Mandatory="No" OrderNumber="38" Role="Timing"/>
      </ItemGroupDef>
      <ItemGroupDef Domain="PP" Name="PP" OID="IG.MDES.PP.[SDTM]_MDES_3" Purpose="Tabulation" Repeating="Yes" def:Class="FINDINGS" def:Structure="One record per PK parameter per time-concentration profile per subject">
        <Description>
          <TranslatedText xml:lang="en">Pharmacokinetics Parameters</TranslatedText>
        </Description>
        <ItemRef ItemOID="IT.MDE.STUDYID.[SDTM_PP]_MDE_1" Mandatory="Yes" OrderNumber="1" Role="Identifier"/>
        <ItemRef ItemOID="IT.MDE.DOMAIN.[SDTM_PP]_MDE_1" Mandatory="Yes" OrderNumber="2" Role="Identifier"/>
        <ItemRef ItemOID="IT.MDE.USUBJID.[SDTM_PP]_MDE_1" Mandatory="Yes" OrderNumber="3" Role="Identifier"/>
        <ItemRef ItemOID="IT.MDE.PPSEQ.[SDTM_PP]_MDE_1" Mandatory="Yes" OrderNumber="4" Role="Identifier"/>
        <ItemRef ItemOID="IT.MDE.PPGRPID.[SDTM_PP]_MDE_1" Mandatory="No" OrderNumber="5" Role="Identifier"/>
        <ItemRef ItemOID="IT.MDE.PPTESTCD.[SDTM_PP]_MDE_2" Mandatory="Yes" OrderNumber="6" Role="Topic"/>
        <ItemRef ItemOID="IT.MDE.PPTEST.[SDTM_PP]_MDE_2" Mandatory="Yes" OrderNumber="7" Role="Synonym Qualifier"/>
        <ItemRef ItemOID="IT.MDE.PPCAT.[SDTM_PP]_MDE_2" Mandatory="No" OrderNumber="8" Role="Grouping Qualifier"/>
        <ItemRef ItemOID="IT.MDE.PPSCAT.[SDTM_PP]_MDE_1" Mandatory="No" OrderNumber="9" Role="Grouping Qualifier"/>
        <ItemRef ItemOID="IT.MDE.PPORRES.[SDTM_PP]_MDE_1" Mandatory="No" OrderNumber="10" Role="Result Qualifier"/>
        <ItemRef ItemOID="IT.MDE.PPORRESU.[SDTM_PP]_MDE_2" Mandatory="No" OrderNumber="11" Role="Variable Qualifier"/>
        <ItemRef ItemOID="IT.MDE.PPSTRESC.[SDTM_PP]_MDE_1" Mandatory="No" OrderNumber="12" Role="Result Qualifier"/>
        <ItemRef ItemOID="IT.MDE.PPSTRESN.[SDTM_PP]_MDE_1" Mandatory="No" OrderNumber="13" Role="Result Qualifier"/>
        <ItemRef ItemOID="IT.MDE.PPSTRESU.[SDTM_PP]_MDE_2" Mandatory="No" OrderNumber="14" Role="Variable Qualifier"/>
        <ItemRef ItemOID="IT.MDE.PPSTAT.[SDTM_PP]_MDE_1" Mandatory="No" OrderNumber="15" Role="Record Qualifier"/>
        <ItemRef ItemOID="IT.MDE.PPREASND.[SDTM_PP]_MDE_1" Mandatory="No" OrderNumber="16" Role="Record Qualifier"/>
        <ItemRef ItemOID="IT.MDE.PPSPEC.[SDTM_PP]_MDE_2" Mandatory="No" OrderNumber="17" Role="Record Qualifier"/>
        <ItemRef ItemOID="IT.MDE.PPDTC.[SDTM_PP]_MDE_1" Mandatory="No" OrderNumber="18" Role="Timing"/>
        <ItemRef ItemOID="IT.MDE.PPRFTDTC.[SDTM_PP]_MDE_1" Mandatory="No" OrderNumber="19" Role="Timing"/>
        <ItemRef ItemOID="IT.MDE.PPSTINT.[SDTM_PP]_MDE_1" Mandatory="No" OrderNumber="20" Role="Timing"/>
        <ItemRef ItemOID="IT.MDE.PPENINT.[SDTM_PP]_MDE_1" Mandatory="No" OrderNumber="21" Role="Timing"/>
      </ItemGroupDef>
      <ItemGroupDef Domain="PE" Name="PE" OID="IG.MDES.PE.[SDTM]_MDES_3" Purpose="Tabulation" Repeating="Yes" def:Class="FINDINGS" def:Structure="One record per body system or abnormality per visit per subject">
        <Description>
          <TranslatedText xml:lang="en">Physical Exam</TranslatedText>
        </Description>
        <ItemRef ItemOID="IT.MDE.STUDYID.[SDTM_PE]_MDE_1" Mandatory="Yes" OrderNumber="1" Role="Identifier"/>
        <ItemRef ItemOID="IT.MDE.DOMAIN.[SDTM_PE]_MDE_1" Mandatory="Yes" OrderNumber="2" Role="Identifier"/>
        <ItemRef ItemOID="IT.MDE.USUBJID.[SDTM_PE]_MDE_1" Mandatory="Yes" OrderNumber="3" Role="Identifier"/>
        <ItemRef ItemOID="IT.MDE.PESEQ.[SDTM_PE]_MDE_1" Mandatory="Yes" OrderNumber="4" Role="Identifier"/>
        <ItemRef ItemOID="IT.MDE.PEGRPID.[SDTM_PE]_MDE_1" Mandatory="No" OrderNumber="5" Role="Identifier"/>
        <ItemRef ItemOID="IT.MDE.PESPID.[SDTM_PE]_MDE_2" Mandatory="No" OrderNumber="6" Role="Identifier"/>
        <ItemRef ItemOID="IT.MDE.PETESTCD.[SDTM_PE]_MDE_2" Mandatory="Yes" OrderNumber="7" Role="Topic"/>
        <ItemRef ItemOID="IT.MDE.PETEST.[SDTM_PE]_MDE_2" Mandatory="Yes" OrderNumber="8" Role="Synonym Qualifier"/>
        <ItemRef ItemOID="IT.MDE.PEMODIFY.[SDTM_PE]_MDE_1" Mandatory="No" OrderNumber="9" Role="Synonym Qualifier"/>
        <ItemRef ItemOID="IT.MDE.PECAT.[SDTM_PE]_MDE_1" Mandatory="No" OrderNumber="10" Role="Grouping Qualifier"/>
        <ItemRef ItemOID="IT.MDE.PESCAT.[SDTM_PE]_MDE_1" Mandatory="No" OrderNumber="11" Role="Grouping Qualifier"/>
        <ItemRef ItemOID="IT.MDE.PEBODSYS.[SDTM_PE]_MDE_2" Mandatory="No" OrderNumber="12" Role="Result Qualifier"/>
        <ItemRef ItemOID="IT.MDE.PEORRES.[SDTM_PE]_MDE_1" Mandatory="No" OrderNumber="13" Role="Result Qualifier"/>
        <ItemRef ItemOID="IT.MDE.PEORRESU.[SDTM_PE]_MDE_1" Mandatory="No" OrderNumber="14" Role="Variable Qualifier"/>
        <ItemRef ItemOID="IT.MDE.PESTRESC.[SDTM_PE]_MDE_1" Mandatory="No" OrderNumber="15" Role="Result Qualifier"/>
        <ItemRef ItemOID="IT.MDE.PESTAT.[SDTM_PE]_MDE_1" Mandatory="No" OrderNumber="16" Role="Record Qualifier"/>
        <ItemRef ItemOID="IT.MDE.PEREASND.[SDTM_PE]_MDE_1" Mandatory="No" OrderNumber="17" Role="Record Qualifier"/>
        <ItemRef ItemOID="IT.MDE.PELOC.[SDTM_PE]_MDE_2" Mandatory="No" OrderNumber="18" Role="Record Qualifier"/>
        <ItemRef ItemOID="IT.MDE.PEMETHOD.[SDTM_PE]_MDE_2" Mandatory="No" OrderNumber="19" Role="Record Qualifier"/>
        <ItemRef ItemOID="IT.MDE.PEEVAL.[SDTM_PE]_MDE_2" Mandatory="No" OrderNumber="20" Role="Record Qualifier"/>
        <ItemRef ItemOID="IT.MDE.VISITNUM.[SDTM_PE]_MDE_1" Mandatory="No" OrderNumber="21" Role="Timing"/>
        <ItemRef ItemOID="IT.MDE.VISIT.[SDTM_PE]_MDE_1" Mandatory="No" OrderNumber="22" Role="Timing"/>
        <ItemRef ItemOID="IT.MDE.VISITDY.[SDTM_PE]_MDE_1" Mandatory="No" OrderNumber="23" Role="Timing"/>
        <ItemRef ItemOID="IT.MDE.PEDTC.[SDTM_PE]_MDE_1" Mandatory="No" OrderNumber="24" Role="Timing"/>
        <ItemRef ItemOID="IT.MDE.PEDY.[SDTM_PE]_MDE_1" Mandatory="No" OrderNumber="25" Role="Timing"/>
      </ItemGroupDef>
      <ItemGroupDef Domain="QS" Name="QS" OID="IG.MDES.QS.[SDTM]_MDES_3" Purpose="Tabulation" Repeating="Yes" def:Class="FINDINGS" def:Structure="One record per questionnaire per question per time point per visit per subject">
        <Description>
          <TranslatedText xml:lang="en">Questionnaires</TranslatedText>
        </Description>
        <ItemRef ItemOID="IT.MDE.STUDYID.[SDTM_QS]_MDE_1" Mandatory="Yes" OrderNumber="1" Role="Identifier"/>
        <ItemRef ItemOID="IT.MDE.DOMAIN.[SDTM_QS]_MDE_1" Mandatory="Yes" OrderNumber="2" Role="Identifier"/>
        <ItemRef ItemOID="IT.MDE.USUBJID.[SDTM_QS]_MDE_1" Mandatory="Yes" OrderNumber="3" Role="Identifier"/>
        <ItemRef ItemOID="IT.MDE.QSSEQ.[SDTM_QS]_MDE_1" Mandatory="Yes" OrderNumber="4" Role="Identifier"/>
        <ItemRef ItemOID="IT.MDE.QSGRPID.[SDTM_QS]_MDE_1" Mandatory="No" OrderNumber="5" Role="Identifier"/>
        <ItemRef ItemOID="IT.MDE.QSSPID.[SDTM_QS]_MDE_2" Mandatory="No" OrderNumber="6" Role="Identifier"/>
        <ItemRef ItemOID="IT.MDE.QSTESTCD.[SDTM_QS]_MDE_2" Mandatory="Yes" OrderNumber="7" Role="Topic"/>
        <ItemRef ItemOID="IT.MDE.QSTEST.[SDTM_QS]_MDE_2" Mandatory="Yes" OrderNumber="8" Role="Synonym Qualifier"/>
        <ItemRef ItemOID="IT.MDE.QSCAT.[SDTM_QS]_MDE_2" Mandatory="Yes" OrderNumber="9" Role="Grouping Qualifier"/>
        <ItemRef ItemOID="IT.MDE.QSSCAT.[SDTM_QS]_MDE_1" Mandatory="No" OrderNumber="10" Role="Grouping Qualifier"/>
        <ItemRef ItemOID="IT.MDE.QSORRES.[SDTM_QS]_MDE_1" Mandatory="No" OrderNumber="11" Role="Result Qualifier"/>
        <ItemRef ItemOID="IT.MDE.QSORRESU.[SDTM_QS]_MDE_1" Mandatory="No" OrderNumber="12" Role="Variable Qualifier"/>
        <ItemRef ItemOID="IT.MDE.QSSTRESC.[SDTM_QS]_MDE_1" Mandatory="No" OrderNumber="13" Role="Result Qualifier"/>
        <ItemRef ItemOID="IT.MDE.QSSTRESN.[SDTM_QS]_MDE_1" Mandatory="No" OrderNumber="14" Role="Result Qualifier"/>
        <ItemRef ItemOID="IT.MDE.QSSTRESU.[SDTM_QS]_MDE_1" Mandatory="No" OrderNumber="15" Role="Variable Qualifier"/>
        <ItemRef ItemOID="IT.MDE.QSSTAT.[SDTM_QS]_MDE_1" Mandatory="No" OrderNumber="16" Role="Record Qualifier"/>
        <ItemRef ItemOID="IT.MDE.QSREASND.[SDTM_QS]_MDE_1" Mandatory="No" OrderNumber="17" Role="Record Qualifier"/>
        <ItemRef ItemOID="IT.MDE.QSBLFL.[SDTM_QS]_MDE_2" Mandatory="No" OrderNumber="18" Role="Record Qualifier"/>
        <ItemRef ItemOID="IT.MDE.QSDRVFL.[SDTM_QS]_MDE_1" Mandatory="No" OrderNumber="19" Role="Record Qualifier"/>
        <ItemRef ItemOID="IT.MDE.QSEVAL.[SDTM_QS]_MDE_1" Mandatory="No" OrderNumber="20" Role="Record Qualifier"/>
        <ItemRef ItemOID="IT.MDE.VISITNUM.[SDTM_QS]_MDE_1" Mandatory="No" OrderNumber="21" Role="Timing"/>
        <ItemRef ItemOID="IT.MDE.VISIT.[SDTM_QS]_MDE_2" Mandatory="No" OrderNumber="22" Role="Timing"/>
        <ItemRef ItemOID="IT.MDE.VISITDY.[SDTM_QS]_MDE_1" Mandatory="No" OrderNumber="23" Role="Timing"/>
        <ItemRef ItemOID="IT.MDE.QSDTC.[SDTM_QS]_MDE_1" Mandatory="No" OrderNumber="24" Role="Timing"/>
        <ItemRef ItemOID="IT.MDE.QSDY.[SDTM_QS]_MDE_1" Mandatory="No" OrderNumber="25" Role="Timing"/>
        <ItemRef ItemOID="IT.MDE.QSTPT.[SDTM_QS]_MDE_1" Mandatory="No" OrderNumber="26" Role="Timing"/>
        <ItemRef ItemOID="IT.MDE.QSTPTNUM.[SDTM_QS]_MDE_1" Mandatory="No" OrderNumber="27" Role="Timing"/>
        <ItemRef ItemOID="IT.MDE.QSELTM.[SDTM_QS]_MDE_2" Mandatory="No" OrderNumber="28" Role="Timing"/>
        <ItemRef ItemOID="IT.MDE.QSTPTREF.[SDTM_QS]_MDE_1" Mandatory="No" OrderNumber="29" Role="Timing"/>
        <ItemRef ItemOID="IT.MDE.QSRFTDTC.[SDTM_QS]_MDE_1" Mandatory="No" OrderNumber="30" Role="Timing"/>
        <ItemRef ItemOID="IT.MDE.QSEVLINT.[SDTM_QS]_MDE_1" Mandatory="No" OrderNumber="31" Role="Timing"/>
      </ItemGroupDef>
      <ItemGroupDef Domain="RP" Name="RP" OID="IG.MDES.RP.[SDTM]_MDES_1" Purpose="Tabulation" Repeating="Yes" def:Class="FINDINGS" def:Structure="One record per Reproductive System Finding per time point per visit per subject">
        <Description>
          <TranslatedText xml:lang="en">Reproductive System Findings</TranslatedText>
        </Description>
        <ItemRef ItemOID="IT.MDE.STUDYID.[SDTM_RP]_MDE_1" Mandatory="Yes" OrderNumber="1" Role="Identifier"/>
        <ItemRef ItemOID="IT.MDE.DOMAIN.[SDTM_RP]_MDE_1" Mandatory="Yes" OrderNumber="2" Role="Identifier"/>
        <ItemRef ItemOID="IT.MDE.USUBJID.[SDTM_RP]_MDE_1" Mandatory="Yes" OrderNumber="3" Role="Identifier"/>
        <ItemRef ItemOID="IT.MDE.RPSEQ.[SDTM_RP]_MDE_1" Mandatory="Yes" OrderNumber="4" Role="Identifier"/>
        <ItemRef ItemOID="IT.MDE.RPGRPID.[SDTM_RP]_MDE_1" Mandatory="No" OrderNumber="5" Role="Identifier"/>
        <ItemRef ItemOID="IT.MDE.RPREFID.[SDTM_RP]_MDE_1" Mandatory="No" OrderNumber="6" Role="Identifier"/>
        <ItemRef ItemOID="IT.MDE.RPSPID.[SDTM_RP]_MDE_1" Mandatory="No" OrderNumber="7" Role="Identifier"/>
        <ItemRef ItemOID="IT.MDE.RPTESTCD.[SDTM_RP]_MDE_1" Mandatory="Yes" OrderNumber="8" Role="Topic"/>
        <ItemRef ItemOID="IT.MDE.RPTEST.[SDTM_RP]_MDE_1" Mandatory="Yes" OrderNumber="9" Role="Synonym Qualifier"/>
        <ItemRef ItemOID="IT.MDE.RPCAT.[SDTM_RP]_MDE_1" Mandatory="No" OrderNumber="10" Role="Grouping Qualifier"/>
        <ItemRef ItemOID="IT.MDE.RPSCAT.[SDTM_RP]_MDE_1" Mandatory="No" OrderNumber="11" Role="Grouping Qualifier"/>
        <ItemRef ItemOID="IT.MDE.RPORRES.[SDTM_RP]_MDE_1" Mandatory="No" OrderNumber="12" Role="Result Qualifier"/>
        <ItemRef ItemOID="IT.MDE.RPORRESU.[SDTM_RP]_MDE_1" Mandatory="No" OrderNumber="13" Role="Variable Qualifier"/>
        <ItemRef ItemOID="IT.MDE.RPSTRESC.[SDTM_RP]_MDE_1" Mandatory="No" OrderNumber="14" Role="Result Qualifier"/>
        <ItemRef ItemOID="IT.MDE.RPSTRESN.[SDTM_RP]_MDE_1" Mandatory="No" OrderNumber="15" Role="Result Qualifier"/>
        <ItemRef ItemOID="IT.MDE.RPSTRESU.[SDTM_RP]_MDE_1" Mandatory="No" OrderNumber="16" Role="Variable Qualifier"/>
        <ItemRef ItemOID="IT.MDE.RPSTAT.[SDTM_RP]_MDE_1" Mandatory="No" OrderNumber="17" Role="Record Qualifier"/>
        <ItemRef ItemOID="IT.MDE.RPREASND.[SDTM_RP]_MDE_1" Mandatory="No" OrderNumber="18" Role="Record Qualifier"/>
        <ItemRef ItemOID="IT.MDE.RPBLFL.[SDTM_RP]_MDE_1" Mandatory="No" OrderNumber="19" Role="Record Qualifier"/>
        <ItemRef ItemOID="IT.MDE.RPDRVFL.[SDTM_RP]_MDE_1" Mandatory="No" OrderNumber="20" Role="Record Qualifier"/>
        <ItemRef ItemOID="IT.MDE.VISITNUM.[SDTM_RP]_MDE_1" Mandatory="No" OrderNumber="21" Role="Timing"/>
        <ItemRef ItemOID="IT.MDE.VISIT.[SDTM_RP]_MDE_1" Mandatory="No" OrderNumber="22" Role="Timing"/>
        <ItemRef ItemOID="IT.MDE.VISITDY.[SDTM_RP]_MDE_1" Mandatory="No" OrderNumber="23" Role="Timing"/>
        <ItemRef ItemOID="IT.MDE.RPDTC.[SDTM_RP]_MDE_1" Mandatory="No" OrderNumber="24" Role="Timing"/>
        <ItemRef ItemOID="IT.MDE.RPDY.[SDTM_RP]_MDE_1" Mandatory="No" OrderNumber="25" Role="Timing"/>
      </ItemGroupDef>
      <ItemGroupDef Domain="SC" Name="SC" OID="IG.MDES.SC.[SDTM]_MDES_3" Purpose="Tabulation" Repeating="Yes" def:Class="FINDINGS" def:Structure="One record per characteristic per subject">
        <Description>
          <TranslatedText xml:lang="en">Subject Characteristics</TranslatedText>
        </Description>
        <ItemRef ItemOID="IT.MDE.STUDYID.[SDTM_SC]_MDE_1" Mandatory="Yes" OrderNumber="1" Role="Identifier"/>
        <ItemRef ItemOID="IT.MDE.DOMAIN.[SDTM_SC]_MDE_1" Mandatory="Yes" OrderNumber="2" Role="Identifier"/>
        <ItemRef ItemOID="IT.MDE.USUBJID.[SDTM_SC]_MDE_1" Mandatory="Yes" OrderNumber="3" Role="Identifier"/>
        <ItemRef ItemOID="IT.MDE.SCSEQ.[SDTM_SC]_MDE_1" Mandatory="Yes" OrderNumber="4" Role="Identifier"/>
        <ItemRef ItemOID="IT.MDE.SCGRPID.[SDTM_SC]_MDE_1" Mandatory="No" OrderNumber="5" Role="Identifier"/>
        <ItemRef ItemOID="IT.MDE.SCSPID.[SDTM_SC]_MDE_2" Mandatory="No" OrderNumber="6" Role="Identifier"/>
        <ItemRef ItemOID="IT.MDE.SCTESTCD.[SDTM_SC]_MDE_2" Mandatory="Yes" OrderNumber="7" Role="Topic"/>
        <ItemRef ItemOID="IT.MDE.SCTEST.[SDTM_SC]_MDE_2" Mandatory="Yes" OrderNumber="8" Role="Synonym Qualifier"/>
        <ItemRef ItemOID="IT.MDE.SCCAT.[SDTM_SC]_MDE_1" Mandatory="No" OrderNumber="9" Role="Grouping Qualifier"/>
        <ItemRef ItemOID="IT.MDE.SCSCAT.[SDTM_SC]_MDE_1" Mandatory="No" OrderNumber="10" Role="Grouping Qualifier"/>
        <ItemRef ItemOID="IT.MDE.SCORRES.[SDTM_SC]_MDE_1" Mandatory="No" OrderNumber="11" Role="Result Qualifier"/>
        <ItemRef ItemOID="IT.MDE.SCORRESU.[SDTM_SC]_MDE_1" Mandatory="No" OrderNumber="12" Role="Variable Qualifier"/>
        <ItemRef ItemOID="IT.MDE.SCSTRESC.[SDTM_SC]_MDE_2" Mandatory="No" OrderNumber="13" Role="Result Qualifier"/>
        <ItemRef ItemOID="IT.MDE.SCSTRESN.[SDTM_SC]_MDE_1" Mandatory="No" OrderNumber="14" Role="Result Qualifier"/>
        <ItemRef ItemOID="IT.MDE.SCSTRESU.[SDTM_SC]_MDE_1" Mandatory="No" OrderNumber="15" Role="Variable Qualifier"/>
        <ItemRef ItemOID="IT.MDE.SCSTAT.[SDTM_SC]_MDE_1" Mandatory="No" OrderNumber="16" Role="Record Qualifier"/>
        <ItemRef ItemOID="IT.MDE.SCREASND.[SDTM_SC]_MDE_1" Mandatory="No" OrderNumber="17" Role="Record Qualifier"/>
        <ItemRef ItemOID="IT.MDE.SCDTC.[SDTM_SC]_MDE_1" Mandatory="No" OrderNumber="18" Role="Timing"/>
        <ItemRef ItemOID="IT.MDE.SCDY.[SDTM_SC]_MDE_2" Mandatory="No" OrderNumber="19" Role="Timing"/>
      </ItemGroupDef>
      <ItemGroupDef Domain="SS" Name="SS" OID="IG.MDES.SS.[SDTM]_MDES_1" Purpose="Tabulation" Repeating="Yes" def:Class="FINDINGS" def:Structure="One record per finding per visit per subject">
        <Description>
          <TranslatedText xml:lang="en">Subject Status</TranslatedText>
        </Description>
        <ItemRef ItemOID="IT.MDE.STUDYID.[SDTM_SS]_MDE_1" Mandatory="Yes" OrderNumber="1" Role="Identifier"/>
        <ItemRef ItemOID="IT.MDE.DOMAIN.[SDTM_SS]_MDE_1" Mandatory="Yes" OrderNumber="2" Role="Identifier"/>
        <ItemRef ItemOID="IT.MDE.USUBJID.[SDTM_SS]_MDE_1" Mandatory="Yes" OrderNumber="3" Role="Identifier"/>
        <ItemRef ItemOID="IT.MDE.SSSEQ.[SDTM_SS]_MDE_1" Mandatory="Yes" OrderNumber="4" Role="Identifier"/>
        <ItemRef ItemOID="IT.MDE.SSGRPID.[SDTM_SS]_MDE_1" Mandatory="No" OrderNumber="5" Role="Identifier"/>
        <ItemRef ItemOID="IT.MDE.SSSPID.[SDTM_SS]_MDE_1" Mandatory="No" OrderNumber="6" Role="Identifier"/>
        <ItemRef ItemOID="IT.MDE.SSTESTCD.[SDTM_SS]_MDE_1" Mandatory="Yes" OrderNumber="7" Role="Topic"/>
        <ItemRef ItemOID="IT.MDE.SSTEST.[SDTM_SS]_MDE_1" Mandatory="Yes" OrderNumber="8" Role="Synonym Qualifier"/>
        <ItemRef ItemOID="IT.MDE.SSCAT.[SDTM_SS]_MDE_1" Mandatory="No" OrderNumber="9" Role="Grouping Qualifier"/>
        <ItemRef ItemOID="IT.MDE.SSSCAT.[SDTM_SS]_MDE_1" Mandatory="No" OrderNumber="10" Role="Grouping Qualifier"/>
        <ItemRef ItemOID="IT.MDE.SSORRES.[SDTM_SS]_MDE_1" Mandatory="No" OrderNumber="11" Role="Result Qualifier"/>
        <ItemRef ItemOID="IT.MDE.SSSTRESC.[SDTM_SS]_MDE_1" Mandatory="No" OrderNumber="12" Role="Result Qualifier"/>
        <ItemRef ItemOID="IT.MDE.SSSTAT.[SDTM_SS]_MDE_1" Mandatory="No" OrderNumber="13" Role="Record Qualifier"/>
        <ItemRef ItemOID="IT.MDE.SSREASND.[SDTM_SS]_MDE_1" Mandatory="No" OrderNumber="14" Role="Record Qualifier"/>
        <ItemRef ItemOID="IT.MDE.SSEVAL.[SDTM_SS]_MDE_1" Mandatory="No" OrderNumber="15" Role="Record Qualifier"/>
        <ItemRef ItemOID="IT.MDE.VISITNUM.[SDTM_SS]_MDE_1" Mandatory="No" OrderNumber="16" Role="Timing"/>
        <ItemRef ItemOID="IT.MDE.VISIT.[SDTM_SS]_MDE_1" Mandatory="No" OrderNumber="17" Role="Timing"/>
        <ItemRef ItemOID="IT.MDE.VISITDY.[SDTM_SS]_MDE_1" Mandatory="No" OrderNumber="18" Role="Timing"/>
        <ItemRef ItemOID="IT.MDE.SSDTC.[SDTM_SS]_MDE_1" Mandatory="No" OrderNumber="19" Role="Timing"/>
        <ItemRef ItemOID="IT.MDE.SSDY.[SDTM_SS]_MDE_1" Mandatory="No" OrderNumber="20" Role="Timing"/>
      </ItemGroupDef>
      <ItemGroupDef Domain="TU" Name="TU" OID="IG.MDES.TU.[SDTM]_MDES_2" Purpose="Tabulation" Repeating="Yes" def:Class="FINDINGS" def:Structure="One record per identified tumor per subject per assessor">
        <Description>
          <TranslatedText xml:lang="en">The Tumor Identification</TranslatedText>
        </Description>
        <ItemRef ItemOID="IT.MDE.STUDYID.[SDTM_TU]_MDE_1" Mandatory="Yes" OrderNumber="1" Role="Identifier"/>
        <ItemRef ItemOID="IT.MDE.DOMAIN.[SDTM_TU]_MDE_1" Mandatory="Yes" OrderNumber="2" Role="Identifier"/>
        <ItemRef ItemOID="IT.MDE.USUBJID.[SDTM_TU]_MDE_1" Mandatory="Yes" OrderNumber="3" Role="Identifier"/>
        <ItemRef ItemOID="IT.MDE.TUSEQ.[SDTM_TU]_MDE_1" Mandatory="Yes" OrderNumber="4" Role="Identifier"/>
        <ItemRef ItemOID="IT.MDE.TUGRPID.[SDTM_TU]_MDE_2" Mandatory="No" OrderNumber="5" Role="Identifier"/>
        <ItemRef ItemOID="IT.MDE.TUREFID.[SDTM_TU]_MDE_1" Mandatory="No" OrderNumber="6" Role="Identifier"/>
        <ItemRef ItemOID="IT.MDE.TUSPID.[SDTM_TU]_MDE_1" Mandatory="No" OrderNumber="7" Role="Identifier"/>
        <ItemRef ItemOID="IT.MDE.TULNKID.[SDTM_TU]_MDE_1" Mandatory="No" OrderNumber="8" Role="Identifier"/>
        <ItemRef ItemOID="IT.MDE.TUTESTCD.[SDTM_TU]_MDE_2" Mandatory="Yes" OrderNumber="9" Role="Topic"/>
        <ItemRef ItemOID="IT.MDE.TUTEST.[SDTM_TU]_MDE_1" Mandatory="Yes" OrderNumber="10" Role="Synonym Qualifier"/>
        <ItemRef ItemOID="IT.MDE.TUORRES.[SDTM_TU]_MDE_2" Mandatory="No" OrderNumber="11" Role="Result Qualifier"/>
        <ItemRef ItemOID="IT.MDE.TUSTRESC.[SDTM_TU]_MDE_1" Mandatory="No" OrderNumber="12" Role="Record Qualifier"/>
        <ItemRef ItemOID="IT.MDE.TUNAM.[SDTM_TU]_MDE_2" Mandatory="No" OrderNumber="13" Role="Record Qualifier"/>
        <ItemRef ItemOID="IT.MDE.TULOC.[SDTM_TU]_MDE_1" Mandatory="No" OrderNumber="14" Role="Record Qualifier"/>
        <ItemRef ItemOID="IT.MDE.TULAT.[SDTM_TU]_MDE_1" Mandatory="No" OrderNumber="15" Role="Record Qualifier"/>
        <ItemRef ItemOID="IT.MDE.TUDIR.[SDTM_TU]_MDE_1" Mandatory="No" OrderNumber="16" Role="Record Qualifier"/>
        <ItemRef ItemOID="IT.MDE.TUPORTOT.[SDTM_TU]_MDE_2" Mandatory="No" OrderNumber="17" Role="Record Qualifier"/>
        <ItemRef ItemOID="IT.MDE.TUMETHOD.[SDTM_TU]_MDE_2" Mandatory="No" OrderNumber="18" Role="Record Qualifier"/>
        <ItemRef ItemOID="IT.MDE.TUEVAL.[SDTM_TU]_MDE_1" Mandatory="No" OrderNumber="19" Role="Record Qualifier"/>
        <ItemRef ItemOID="IT.MDE.TUEVALID.[SDTM_TU]_MDE_2" Mandatory="No" OrderNumber="20" Role="Variable Qualifier"/>
        <ItemRef ItemOID="IT.MDE.TUACPTFL.[SDTM_TU]_MDE_1" Mandatory="No" OrderNumber="21" Role="Record Qualifier"/>
        <ItemRef ItemOID="IT.MDE.VISITNUM.[SDTM_TU]_MDE_1" Mandatory="No" OrderNumber="22" Role="Timing"/>
        <ItemRef ItemOID="IT.MDE.VISIT.[SDTM_TU]_MDE_1" Mandatory="No" OrderNumber="23" Role="Timing"/>
        <ItemRef ItemOID="IT.MDE.VISITDY.[SDTM_TU]_MDE_1" Mandatory="No" OrderNumber="24" Role="Timing"/>
        <ItemRef ItemOID="IT.MDE.EPOCH.[SDTM_TU]_MDE_1" Mandatory="No" OrderNumber="25" Role="Timing"/>
        <ItemRef ItemOID="IT.MDE.TUDTC.[SDTM_TU]_MDE_2" Mandatory="No" OrderNumber="26" Role="Timing"/>
        <ItemRef ItemOID="IT.MDE.TUDY.[SDTM_TU]_MDE_1" Mandatory="No" OrderNumber="27" Role="Timing"/>
      </ItemGroupDef>
      <ItemGroupDef Domain="TR" Name="TR" OID="IG.MDES.TR.[SDTM]_MDES_2" Purpose="Tabulation" Repeating="Yes" def:Class="FINDINGS" def:Structure="One record per tumor measurement/assessment per visit per subject per assessor">
        <Description>
          <TranslatedText xml:lang="en">The Tumor Response</TranslatedText>
        </Description>
        <ItemRef ItemOID="IT.MDE.STUDYID.[SDTM_TR]_MDE_1" Mandatory="Yes" OrderNumber="1" Role="Identifier"/>
        <ItemRef ItemOID="IT.MDE.DOMAIN.[SDTM_TR]_MDE_1" Mandatory="Yes" OrderNumber="2" Role="Identifier"/>
        <ItemRef ItemOID="IT.MDE.USUBJID.[SDTM_TR]_MDE_1" Mandatory="Yes" OrderNumber="3" Role="Identifier"/>
        <ItemRef ItemOID="IT.MDE.TRSEQ.[SDTM_TR]_MDE_1" Mandatory="Yes" OrderNumber="4" Role="Identifier"/>
        <ItemRef ItemOID="IT.MDE.TRGRPID.[SDTM_TR]_MDE_1" Mandatory="No" OrderNumber="5" Role="Identifier"/>
        <ItemRef ItemOID="IT.MDE.TRREFID.[SDTM_TR]_MDE_1" Mandatory="No" OrderNumber="6" Role="Identifier"/>
        <ItemRef ItemOID="IT.MDE.TRSPID.[SDTM_TR]_MDE_1" Mandatory="No" OrderNumber="7" Role="Identifier"/>
        <ItemRef ItemOID="IT.MDE.TRLNKID.[SDTM_TR]_MDE_1" Mandatory="No" OrderNumber="8" Role="Identifier"/>
        <ItemRef ItemOID="IT.MDE.TRLNKGRP.[SDTM_TR]_MDE_1" Mandatory="No" OrderNumber="9" Role="Identifier"/>
        <ItemRef ItemOID="IT.MDE.TRTESTCD.[SDTM_TR]_MDE_1" Mandatory="Yes" OrderNumber="10" Role="Topic"/>
        <ItemRef ItemOID="IT.MDE.TRTEST.[SDTM_TR]_MDE_1" Mandatory="Yes" OrderNumber="11" Role="Synonym Qualifier"/>
        <ItemRef ItemOID="IT.MDE.TRORRES.[SDTM_TR]_MDE_1" Mandatory="No" OrderNumber="12" Role="Result Qualifier"/>
        <ItemRef ItemOID="IT.MDE.TRSTRESC.[SDTM_TR]_MDE_1" Mandatory="No" OrderNumber="14" Role="Record Qualifier"/>
        <ItemRef ItemOID="IT.MDE.TRSTRESN.[SDTM_TR]_MDE_1" Mandatory="No" OrderNumber="15" Role="Result Qualifier"/>
        <ItemRef ItemOID="IT.MDE.TRSTAT.[SDTM_TR]_MDE_1" Mandatory="No" OrderNumber="17" Role="Result Qualifier"/>
        <ItemRef ItemOID="IT.MDE.TRREASND.[SDTM_TR]_MDE_1" Mandatory="No" OrderNumber="18" Role="Record Qualifier"/>
        <ItemRef ItemOID="IT.MDE.TRNAM.[SDTM_TR]_MDE_2" Mandatory="No" OrderNumber="19" Role="Record Qualifier"/>
        <ItemRef ItemOID="IT.MDE.TRMETHOD.[SDTM_TR]_MDE_1" Mandatory="No" OrderNumber="20" Role="Record Qualifier"/>
        <ItemRef ItemOID="IT.MDE.TREVAL.[SDTM_TR]_MDE_2" Mandatory="No" OrderNumber="21" Role="Record Qualifier"/>
        <ItemRef ItemOID="IT.MDE.TREVALID.[SDTM_TR]_MDE_1" Mandatory="No" OrderNumber="22" Role="Variable Qualifier"/>
        <ItemRef ItemOID="IT.MDE.TRACPTFL.[SDTM_TR]_MDE_1" Mandatory="No" OrderNumber="23" Role="Record Qualifier"/>
        <ItemRef ItemOID="IT.MDE.VISITNUM.[SDTM_TR]_MDE_2" Mandatory="No" OrderNumber="24" Role="Timing"/>
        <ItemRef ItemOID="IT.MDE.VISIT.[SDTM_TR]_MDE_2" Mandatory="No" OrderNumber="25" Role="Timing"/>
        <ItemRef ItemOID="IT.MDE.VISITDY.[SDTM_TR]_MDE_1" Mandatory="No" OrderNumber="26" Role="Timing"/>
        <ItemRef ItemOID="IT.MDE.EPOCH.[SDTM_TR]_MDE_1" Mandatory="No" OrderNumber="27" Role="Timing"/>
        <ItemRef ItemOID="IT.MDE.TRDTC.[SDTM_TR]_MDE_1" Mandatory="No" OrderNumber="28" Role="Timing"/>
        <ItemRef ItemOID="IT.MDE.TRDY.[SDTM_TR]_MDE_2" Mandatory="No" OrderNumber="29" Role="Timing"/>
        <ItemRef ItemOID="IT.MDE.TRSTRESU.[SDTM_TR]_MDE_1" Mandatory="No" OrderNumber="16" Role="Variable Qualifier"/>
      </ItemGroupDef>
      <ItemGroupDef Domain="RS" Name="RS" OID="IG.MDES.RS.[SDTM]_MDES_2" Purpose="Tabulation" Repeating="Yes" def:Class="FINDINGS" def:Structure="One record per response assessment per visit per subject per assessor">
        <Description>
          <TranslatedText xml:lang="en">The Disease Response</TranslatedText>
        </Description>
        <ItemRef ItemOID="IT.MDE.STUDYID.[SDTM_RS]_MDE_1" Mandatory="Yes" OrderNumber="1" Role="Identifier"/>
        <ItemRef ItemOID="IT.MDE.DOMAIN.[SDTM_RS]_MDE_1" Mandatory="Yes" OrderNumber="2" Role="Identifier"/>
        <ItemRef ItemOID="IT.MDE.USUBJID.[SDTM_RS]_MDE_1" Mandatory="Yes" OrderNumber="3" Role="Identifier"/>
        <ItemRef ItemOID="IT.MDE.RSSEQ.[SDTM_RS]_MDE_1" Mandatory="Yes" OrderNumber="4" Role="Identifier"/>
        <ItemRef ItemOID="IT.MDE.RSGRPID.[SDTM_RS]_MDE_1" Mandatory="No" OrderNumber="5" Role="Identifier"/>
        <ItemRef ItemOID="IT.MDE.RSREFID.[SDTM_RS]_MDE_1" Mandatory="No" OrderNumber="6" Role="Identifier"/>
        <ItemRef ItemOID="IT.MDE.RSSPID.[SDTM_RS]_MDE_1" Mandatory="No" OrderNumber="7" Role="Identifier"/>
        <ItemRef ItemOID="IT.MDE.RSLNKID.[SDTM_RS]_MDE_1" Mandatory="No" OrderNumber="8" Role="Identifier"/>
        <ItemRef ItemOID="IT.MDE.RSLNKGRP.[SDTM_RS]_MDE_1" Mandatory="No" OrderNumber="9" Role="Identifier"/>
        <ItemRef ItemOID="IT.MDE.RSTESTCD.[SDTM_RS]_MDE_1" Mandatory="Yes" OrderNumber="10" Role="Topic"/>
        <ItemRef ItemOID="IT.MDE.RSTEST.[SDTM_RS]_MDE_1" Mandatory="Yes" OrderNumber="11" Role="Synonym Qualifier"/>
        <ItemRef ItemOID="IT.MDE.RSCAT.[SDTM_RS]_MDE_1" Mandatory="No" OrderNumber="12" Role="Grouping Qualifier"/>
        <ItemRef ItemOID="IT.MDE.RSORRES.[SDTM_RS]_MDE_1" Mandatory="No" OrderNumber="13" Role="Result Qualifier"/>
        <ItemRef ItemOID="IT.MDE.RSSTRESC.[SDTM_RS]_MDE_1" Mandatory="No" OrderNumber="14" Role="Record Qualifier"/>
        <ItemRef ItemOID="IT.MDE.RSSTAT.[SDTM_RS]_MDE_1" Mandatory="No" OrderNumber="15" Role="Result Qualifier"/>
        <ItemRef ItemOID="IT.MDE.RSREASND.[SDTM_RS]_MDE_1" Mandatory="No" OrderNumber="16" Role="Record Qualifier"/>
        <ItemRef ItemOID="IT.MDE.RSNAM.[SDTM_RS]_MDE_1" Mandatory="No" OrderNumber="17" Role="Record Qualifier"/>
        <ItemRef ItemOID="IT.MDE.RSEVAL.[SDTM_RS]_MDE_1" Mandatory="No" OrderNumber="18" Role="Record Qualifier"/>
        <ItemRef ItemOID="IT.MDE.RSEVALID.[SDTM_RS]_MDE_1" Mandatory="No" OrderNumber="19" Role="Variable Qualifier"/>
        <ItemRef ItemOID="IT.MDE.RSACPTFL.[SDTM_RS]_MDE_1" Mandatory="No" OrderNumber="20" Role="Record Qualifier"/>
        <ItemRef ItemOID="IT.MDE.VISITNUM.[SDTM_RS]_MDE_2" Mandatory="No" OrderNumber="21" Role="Timing"/>
        <ItemRef ItemOID="IT.MDE.VISIT.[SDTM_RS]_MDE_2" Mandatory="No" OrderNumber="22" Role="Timing"/>
        <ItemRef ItemOID="IT.MDE.VISITDY.[SDTM_RS]_MDE_1" Mandatory="No" OrderNumber="23" Role="Timing"/>
        <ItemRef ItemOID="IT.MDE.EPOCH.[SDTM_RS]_MDE_1" Mandatory="No" OrderNumber="24" Role="Timing"/>
        <ItemRef ItemOID="IT.MDE.RSDTC.[SDTM_RS]_MDE_1" Mandatory="No" OrderNumber="25" Role="Timing"/>
        <ItemRef ItemOID="IT.MDE.RSDY.[SDTM_RS]_MDE_2" Mandatory="No" OrderNumber="26" Role="Timing"/>
      </ItemGroupDef>
      <ItemGroupDef Domain="VS" Name="VS" OID="IG.MDES.VS.[SDTM]_MDES_3" Purpose="Tabulation" Repeating="Yes" def:Class="FINDINGS" def:Structure="One record per vital sign measurement per time point per visit per subject">
        <Description>
          <TranslatedText xml:lang="en">Vital Signs</TranslatedText>
        </Description>
        <ItemRef ItemOID="IT.MDE.STUDYID.[SDTM_VS]_MDE_1" Mandatory="Yes" OrderNumber="1" Role="Identifier"/>
        <ItemRef ItemOID="IT.MDE.DOMAIN.[SDTM_VS]_MDE_1" Mandatory="Yes" OrderNumber="2" Role="Identifier"/>
        <ItemRef ItemOID="IT.MDE.USUBJID.[SDTM_VS]_MDE_1" Mandatory="Yes" OrderNumber="3" Role="Identifier"/>
        <ItemRef ItemOID="IT.MDE.VSSEQ.[SDTM_VS]_MDE_1" Mandatory="Yes" OrderNumber="4" Role="Identifier"/>
        <ItemRef ItemOID="IT.MDE.VSGRPID.[SDTM_VS]_MDE_1" Mandatory="No" OrderNumber="5" Role="Identifier"/>
        <ItemRef ItemOID="IT.MDE.VSSPID.[SDTM_VS]_MDE_2" Mandatory="No" OrderNumber="6" Role="Identifier"/>
        <ItemRef ItemOID="IT.MDE.VSTESTCD.[SDTM_VS]_MDE_2" Mandatory="Yes" OrderNumber="7" Role="Topic"/>
        <ItemRef ItemOID="IT.MDE.VSTEST.[SDTM_VS]_MDE_1" Mandatory="Yes" OrderNumber="8" Role="Synonym Qualifier"/>
        <ItemRef ItemOID="IT.MDE.VSCAT.[SDTM_VS]_MDE_1" Mandatory="No" OrderNumber="9" Role="Grouping Qualifier"/>
        <ItemRef ItemOID="IT.MDE.VSSCAT.[SDTM_VS]_MDE_1" Mandatory="No" OrderNumber="10" Role="Grouping Qualifier"/>
        <ItemRef ItemOID="IT.MDE.VSPOS.[SDTM_VS]_MDE_1" Mandatory="No" OrderNumber="11" Role="Record Qualifier"/>
        <ItemRef ItemOID="IT.MDE.VSORRES.[SDTM_VS]_MDE_1" Mandatory="No" OrderNumber="12" Role="Result Qualifier"/>
        <ItemRef ItemOID="IT.MDE.VSORRESU.[SDTM_VS]_MDE_1" Mandatory="No" OrderNumber="13" Role="Variable Qualifier"/>
        <ItemRef ItemOID="IT.MDE.VSSTRESC.[SDTM_VS]_MDE_2" Mandatory="No" OrderNumber="14" Role="Result Qualifier"/>
        <ItemRef ItemOID="IT.MDE.VSSTRESN.[SDTM_VS]_MDE_1" Mandatory="No" OrderNumber="15" Role="Result Qualifier"/>
        <ItemRef ItemOID="IT.MDE.VSSTRESU.[SDTM_VS]_MDE_1" Mandatory="No" OrderNumber="16" Role="Variable Qualifier"/>
        <ItemRef ItemOID="IT.MDE.VSSTAT.[SDTM_VS]_MDE_1" Mandatory="No" OrderNumber="17" Role="Record Qualifier"/>
        <ItemRef ItemOID="IT.MDE.VSREASND.[SDTM_VS]_MDE_1" Mandatory="No" OrderNumber="18" Role="Record Qualifier"/>
        <ItemRef ItemOID="IT.MDE.VSLOC.[SDTM_VS]_MDE_2" Mandatory="No" OrderNumber="19" Role="Record Qualifier"/>
        <ItemRef ItemOID="IT.MDE.VSLAT.[SDTM_VS]_MDE_1" Mandatory="No" OrderNumber="20" Role="Result Qualifier"/>
        <ItemRef ItemOID="IT.MDE.VSBLFL.[SDTM_VS]_MDE_2" Mandatory="No" OrderNumber="21" Role="Record Qualifier"/>
        <ItemRef ItemOID="IT.MDE.VSDRVFL.[SDTM_VS]_MDE_1" Mandatory="No" OrderNumber="22" Role="Record Qualifier"/>
        <ItemRef ItemOID="IT.MDE.VISITNUM.[SDTM_VS]_MDE_2" Mandatory="No" OrderNumber="23" Role="Timing"/>
        <ItemRef ItemOID="IT.MDE.VISIT.[SDTM_VS]_MDE_2" Mandatory="No" OrderNumber="24" Role="Timing"/>
        <ItemRef ItemOID="IT.MDE.VISITDY.[SDTM_VS]_MDE_1" Mandatory="No" OrderNumber="25" Role="Timing"/>
        <ItemRef ItemOID="IT.MDE.VSDTC.[SDTM_VS]_MDE_1" Mandatory="No" OrderNumber="26" Role="Timing"/>
        <ItemRef ItemOID="IT.MDE.VSDY.[SDTM_VS]_MDE_2" Mandatory="No" OrderNumber="27" Role="Timing"/>
        <ItemRef ItemOID="IT.MDE.VSTPT.[SDTM_VS]_MDE_2" Mandatory="No" OrderNumber="28" Role="Timing"/>
        <ItemRef ItemOID="IT.MDE.VSTPTNUM.[SDTM_VS]_MDE_1" Mandatory="No" OrderNumber="29" Role="Timing"/>
        <ItemRef ItemOID="IT.MDE.VSELTM.[SDTM_VS]_MDE_2" Mandatory="No" OrderNumber="30" Role="Timing"/>
        <ItemRef ItemOID="IT.MDE.VSTPTREF.[SDTM_VS]_MDE_1" Mandatory="No" OrderNumber="31" Role="Timing"/>
        <ItemRef ItemOID="IT.MDE.VSRFTDTC.[SDTM_VS]_MDE_1" Mandatory="No" OrderNumber="32" Role="Timing"/>
      </ItemGroupDef>
      <ItemDef DataType="text" Length="0" Name="STUDYID" OID="IT.MDE.STUDYID.[SDTM_AE]_MDE_1">
        <Description>
          <TranslatedText xml:lang="en">Study Identifier</TranslatedText>
        </Description>
      </ItemDef>
      <ItemDef DataType="text" Length="0" Name="DOMAIN" OID="IT.MDE.DOMAIN.[SDTM_AE]_MDE_1">
        <Description>
          <TranslatedText xml:lang="en">Domain Abbreviation</TranslatedText>
        </Description>
        <CodeListRef CodeListOID="CL.VD.DOMAIN.[SHARE_SDTM_AE]_VD_1"/>
      </ItemDef>
      <ItemDef DataType="text" Length="0" Name="USUBJID" OID="IT.MDE.USUBJID.[SDTM_AE]_MDE_1">
        <Description>
          <TranslatedText xml:lang="en">Unique Subject Identifier</TranslatedText>
        </Description>
      </ItemDef>
      <ItemDef DataType="float" Length="0" Name="AESEQ" OID="IT.MDE.AESEQ.[SDTM_AE]_MDE_1">
        <Description>
          <TranslatedText xml:lang="en">Sequence Number</TranslatedText>
        </Description>
      </ItemDef>
      <ItemDef DataType="text" Length="0" Name="AEGRPID" OID="IT.MDE.AEGRPID.[SDTM_AE]_MDE_1">
        <Description>
          <TranslatedText xml:lang="en">Group ID</TranslatedText>
        </Description>
      </ItemDef>
      <ItemDef DataType="text" Length="0" Name="AEREFID" OID="IT.MDE.AEREFID.[SDTM_AE]_MDE_2">
        <Description>
          <TranslatedText xml:lang="en">Reference ID</TranslatedText>
        </Description>
      </ItemDef>
      <ItemDef DataType="text" Length="0" Name="AESPID" OID="IT.MDE.AESPID.[SDTM_AE]_MDE_2">
        <Description>
          <TranslatedText xml:lang="en">Sponsor-Defined Identifier</TranslatedText>
        </Description>
      </ItemDef>
      <ItemDef DataType="text" Length="0" Name="AETERM" OID="IT.MDE.AETERM.[SDTM_AE]_MDE_1">
        <Description>
          <TranslatedText xml:lang="en">Reported Term for the Adverse Event</TranslatedText>
        </Description>
      </ItemDef>
      <ItemDef DataType="text" Length="0" Name="AEMODIFY" OID="IT.MDE.AEMODIFY.[SDTM_AE]_MDE_1">
        <Description>
          <TranslatedText xml:lang="en">Modified Reported Term</TranslatedText>
        </Description>
      </ItemDef>
      <ItemDef DataType="text" Length="0" Name="AELLT" OID="IT.MDE.AELLT.[SDTM_AE]_MDE_1">
        <Description>
          <TranslatedText xml:lang="en">Lowest Level Term</TranslatedText>
        </Description>
      </ItemDef>
      <ItemDef DataType="text" Length="0" Name="AELLTCD" OID="IT.MDE.AELLTCD.[SDTM_AE]_MDE_1">
        <Description>
          <TranslatedText xml:lang="en">Lowest Level Term Code</TranslatedText>
        </Description>
      </ItemDef>
      <ItemDef DataType="text" Length="0" Name="AEDECOD" OID="IT.MDE.AEDECOD.[SDTM_AE]_MDE_2">
        <Description>
          <TranslatedText xml:lang="en">Dictionary-Derived Term</TranslatedText>
        </Description>
      </ItemDef>
      <ItemDef DataType="text" Length="0" Name="AEPTCD" OID="IT.MDE.AEPTCD.[SDTM_AE]_MDE_1">
        <Description>
          <TranslatedText xml:lang="en">Preferred Term Code</TranslatedText>
        </Description>
      </ItemDef>
      <ItemDef DataType="text" Length="0" Name="AEHLT" OID="IT.MDE.AEHLT.[SDTM_AE]_MDE_1">
        <Description>
          <TranslatedText xml:lang="en">High Level Term</TranslatedText>
        </Description>
      </ItemDef>
      <ItemDef DataType="text" Length="0" Name="AEHLTCD" OID="IT.MDE.AEHLTCD.[SDTM_AE]_MDE_1">
        <Description>
          <TranslatedText xml:lang="en">High Level Term Code</TranslatedText>
        </Description>
      </ItemDef>
      <ItemDef DataType="text" Length="0" Name="AEHLGT" OID="IT.MDE.AEHLGT.[SDTM_AE]_MDE_1">
        <Description>
          <TranslatedText xml:lang="en">High Level Group Term</TranslatedText>
        </Description>
      </ItemDef>
      <ItemDef DataType="text" Length="0" Name="AEHLGTCD" OID="IT.MDE.AEHLGTCD.[SDTM_AE]_MDE_1">
        <Description>
          <TranslatedText xml:lang="en">High Level Group Term Code</TranslatedText>
        </Description>
      </ItemDef>
      <ItemDef DataType="text" Length="0" Name="AECAT" OID="IT.MDE.AECAT.[SDTM_AE]_MDE_1">
        <Description>
          <TranslatedText xml:lang="en">Category for Adverse Event</TranslatedText>
        </Description>
      </ItemDef>
      <ItemDef DataType="text" Length="0" Name="AESCAT" OID="IT.MDE.AESCAT.[SDTM_AE]_MDE_1">
        <Description>
          <TranslatedText xml:lang="en">Subcategory for Adverse Event</TranslatedText>
        </Description>
      </ItemDef>
      <ItemDef DataType="text" Length="0" Name="AEPRESP" OID="IT.MDE.AEPRESP.[SDTM_AE]_MDE_2">
        <Description>
          <TranslatedText xml:lang="en">Pre-Specified Adverse Event</TranslatedText>
        </Description>
        <CodeListRef CodeListOID="CL.VD.NY.[root]_VD"/>
      </ItemDef>
      <ItemDef DataType="text" Length="0" Name="AEBODSYS" OID="IT.MDE.AEBODSYS.[SDTM_AE]_MDE_2">
        <Description>
          <TranslatedText xml:lang="en">Body System or Organ Class</TranslatedText>
        </Description>
      </ItemDef>
      <ItemDef DataType="text" Length="0" Name="AEBDSYCD" OID="IT.MDE.AEBDSYCD.[SDTM_AE]_MDE_2">
        <Description>
          <TranslatedText xml:lang="en">Body System or Organ Class Code</TranslatedText>
        </Description>
      </ItemDef>
      <ItemDef DataType="text" Length="0" Name="AESOC" OID="IT.MDE.AESOC.[SDTM_AE]_MDE_1">
        <Description>
          <TranslatedText xml:lang="en">Primary System Organ Class</TranslatedText>
        </Description>
      </ItemDef>
      <ItemDef DataType="text" Length="0" Name="AESOCCD" OID="IT.MDE.AESOCCD.[SDTM_AE]_MDE_1">
        <Description>
          <TranslatedText xml:lang="en">Primary System Organ Class Code</TranslatedText>
        </Description>
      </ItemDef>
      <ItemDef DataType="text" Length="0" Name="AELOC" OID="IT.MDE.AELOC.[SDTM_AE]_MDE_2">
        <Description>
          <TranslatedText xml:lang="en">Location of Event</TranslatedText>
        </Description>
        <CodeListRef CodeListOID="CL.VD.LOC.[root]_VD"/>
      </ItemDef>
      <ItemDef DataType="text" Length="0" Name="AESEV" OID="IT.MDE.AESEV.[SDTM_AE]_MDE_1">
        <Description>
          <TranslatedText xml:lang="en">Severity/Intensity</TranslatedText>
        </Description>
        <CodeListRef CodeListOID="CL.VD.AESEV.[root]_VD"/>
      </ItemDef>
      <ItemDef DataType="text" Length="0" Name="AESER" OID="IT.MDE.AESER.[SDTM_AE]_MDE_1">
        <Description>
          <TranslatedText xml:lang="en">Serious Event</TranslatedText>
        </Description>
        <CodeListRef CodeListOID="CL.VD.NY.[root]_VD"/>
      </ItemDef>
      <ItemDef DataType="text" Length="0" Name="AEACN" OID="IT.MDE.AEACN.[SDTM_AE]_MDE_2">
        <Description>
          <TranslatedText xml:lang="en">Action Taken with Study Treatment</TranslatedText>
        </Description>
        <CodeListRef CodeListOID="CL.VD.ACN.[root]_VD"/>
      </ItemDef>
      <ItemDef DataType="text" Length="0" Name="AEACNOTH" OID="IT.MDE.AEACNOTH.[SDTM_AE]_MDE_2">
        <Description>
          <TranslatedText xml:lang="en">Other Action Taken</TranslatedText>
        </Description>
      </ItemDef>
      <ItemDef DataType="text" Length="0" Name="AEREL" OID="IT.MDE.AEREL.[SDTM_AE]_MDE_2">
        <Description>
          <TranslatedText xml:lang="en">Causality</TranslatedText>
        </Description>
      </ItemDef>
      <ItemDef DataType="text" Length="0" Name="AERELNST" OID="IT.MDE.AERELNST.[SDTM_AE]_MDE_2">
        <Description>
          <TranslatedText xml:lang="en">Relationship to Non-Study Treatment</TranslatedText>
        </Description>
      </ItemDef>
      <ItemDef DataType="text" Length="0" Name="AEPATT" OID="IT.MDE.AEPATT.[SDTM_AE]_MDE_1">
        <Description>
          <TranslatedText xml:lang="en">Pattern of Adverse Event</TranslatedText>
        </Description>
      </ItemDef>
      <ItemDef DataType="text" Length="0" Name="AEOUT" OID="IT.MDE.AEOUT.[SDTM_AE]_MDE_1">
        <Description>
          <TranslatedText xml:lang="en">Outcome of Adverse Event</TranslatedText>
        </Description>
        <CodeListRef CodeListOID="CL.VD.OUT.[root]_VD"/>
      </ItemDef>
      <ItemDef DataType="text" Length="0" Name="AESCAN" OID="IT.MDE.AESCAN.[SDTM_AE]_MDE_1">
        <Description>
          <TranslatedText xml:lang="en">Involves Cancer</TranslatedText>
        </Description>
        <CodeListRef CodeListOID="CL.VD.NY.[root]_VD"/>
      </ItemDef>
      <ItemDef DataType="text" Length="0" Name="AESCONG" OID="IT.MDE.AESCONG.[SDTM_AE]_MDE_1">
        <Description>
          <TranslatedText xml:lang="en">Congenital Anomaly or Birth Defect</TranslatedText>
        </Description>
        <CodeListRef CodeListOID="CL.VD.NY.[root]_VD"/>
      </ItemDef>
      <ItemDef DataType="text" Length="0" Name="AESDISAB" OID="IT.MDE.AESDISAB.[SDTM_AE]_MDE_1">
        <Description>
          <TranslatedText xml:lang="en">Persist or Signif Disability/Incapacity</TranslatedText>
        </Description>
        <CodeListRef CodeListOID="CL.VD.NY.[root]_VD"/>
      </ItemDef>
      <ItemDef DataType="text" Length="0" Name="AESDTH" OID="IT.MDE.AESDTH.[SDTM_AE]_MDE_1">
        <Description>
          <TranslatedText xml:lang="en">Results in Death</TranslatedText>
        </Description>
        <CodeListRef CodeListOID="CL.VD.NY.[root]_VD"/>
      </ItemDef>
      <ItemDef DataType="text" Length="0" Name="AESHOSP" OID="IT.MDE.AESHOSP.[SDTM_AE]_MDE_1">
        <Description>
          <TranslatedText xml:lang="en">Requires or Prolongs Hospitalization</TranslatedText>
        </Description>
        <CodeListRef CodeListOID="CL.VD.NY.[root]_VD"/>
      </ItemDef>
      <ItemDef DataType="text" Length="0" Name="AESLIFE" OID="IT.MDE.AESLIFE.[SDTM_AE]_MDE_1">
        <Description>
          <TranslatedText xml:lang="en">Is Life Threatening</TranslatedText>
        </Description>
        <CodeListRef CodeListOID="CL.VD.NY.[root]_VD"/>
      </ItemDef>
      <ItemDef DataType="text" Length="0" Name="AESOD" OID="IT.MDE.AESOD.[SDTM_AE]_MDE_1">
        <Description>
          <TranslatedText xml:lang="en">Occurred with Overdose</TranslatedText>
        </Description>
        <CodeListRef CodeListOID="CL.VD.NY.[root]_VD"/>
      </ItemDef>
      <ItemDef DataType="text" Length="0" Name="AESMIE" OID="IT.MDE.AESMIE.[SDTM_AE]_MDE_1">
        <Description>
          <TranslatedText xml:lang="en">Other Medically Important Serious Event</TranslatedText>
        </Description>
        <CodeListRef CodeListOID="CL.VD.NY.[root]_VD"/>
      </ItemDef>
      <ItemDef DataType="text" Length="0" Name="AECONTRT" OID="IT.MDE.AECONTRT.[SDTM_AE]_MDE_1">
        <Description>
          <TranslatedText xml:lang="en">Concomitant or Additional Trtmnt Given</TranslatedText>
        </Description>
        <CodeListRef CodeListOID="CL.VD.NY.[root]_VD"/>
      </ItemDef>
      <ItemDef DataType="text" Length="0" Name="AETOXGR" OID="IT.MDE.AETOXGR.[SDTM_AE]_MDE_3">
        <Description>
          <TranslatedText xml:lang="en">Standard Toxicity Grade</TranslatedText>
        </Description>
      </ItemDef>
      <ItemDef DataType="text" Length="0" Name="AESTDTC" OID="IT.MDE.AESTDTC.[SDTM_AE]_MDE_1">
        <Description>
          <TranslatedText xml:lang="en">Start Date/Time of Adverse Event</TranslatedText>
        </Description>
      </ItemDef>
      <ItemDef DataType="text" Length="0" Name="AEENDTC" OID="IT.MDE.AEENDTC.[SDTM_AE]_MDE_1">
        <Description>
          <TranslatedText xml:lang="en">End Date/Time of Adverse Event</TranslatedText>
        </Description>
      </ItemDef>
      <ItemDef DataType="float" Length="0" Name="AESTDY" OID="IT.MDE.AESTDY.[SDTM_AE]_MDE_1">
        <Description>
          <TranslatedText xml:lang="en">Study Day of Start of Adverse Event</TranslatedText>
        </Description>
      </ItemDef>
      <ItemDef DataType="float" Length="0" Name="AEENDY" OID="IT.MDE.AEENDY.[SDTM_AE]_MDE_1">
        <Description>
          <TranslatedText xml:lang="en">Study Day of End of Adverse Event</TranslatedText>
        </Description>
      </ItemDef>
      <ItemDef DataType="text" Length="0" Name="AEDUR" OID="IT.MDE.AEDUR.[SDTM_AE]_MDE_1">
        <Description>
          <TranslatedText xml:lang="en">Duration of Adverse Event</TranslatedText>
        </Description>
      </ItemDef>
      <ItemDef DataType="text" Length="0" Name="AEENRF" OID="IT.MDE.AEENRF.[SDTM_AE]_MDE_1">
        <Description>
          <TranslatedText xml:lang="en">End Relative to Reference Period</TranslatedText>
        </Description>
        <CodeListRef CodeListOID="CL.VD.STENRF.[root]_VD"/>
      </ItemDef>
      <ItemDef DataType="text" Length="0" Name="AEENRTPT" OID="IT.MDE.AEENRTPT.[SDTM_AE]_MDE_2">
        <Description>
          <TranslatedText xml:lang="en">End Relative to Reference Time Point</TranslatedText>
        </Description>
        <CodeListRef CodeListOID="CL.VD.STENRF.[root]_VD"/>
      </ItemDef>
      <ItemDef DataType="text" Length="0" Name="AEENTPT" OID="IT.MDE.AEENTPT.[SDTM_AE]_MDE_1">
        <Description>
          <TranslatedText xml:lang="en">End Reference Time Point</TranslatedText>
        </Description>
      </ItemDef>
      <ItemDef DataType="text" Length="0" Name="STUDYID" OID="IT.MDE.STUDYID.[SDTM_CE]_MDE_1">
        <Description>
          <TranslatedText xml:lang="en">Study Identifier</TranslatedText>
        </Description>
      </ItemDef>
      <ItemDef DataType="text" Length="0" Name="DOMAIN" OID="IT.MDE.DOMAIN.[SDTM_CE]_MDE_1">
        <Description>
          <TranslatedText xml:lang="en">Domain Abbreviation</TranslatedText>
        </Description>
      </ItemDef>
      <ItemDef DataType="text" Length="0" Name="USUBJID" OID="IT.MDE.USUBJID.[SDTM_CE]_MDE_1">
        <Description>
          <TranslatedText xml:lang="en">Unique Subject Identifier</TranslatedText>
        </Description>
      </ItemDef>
      <ItemDef DataType="float" Length="0" Name="CESEQ" OID="IT.MDE.CESEQ.[SDTM_CE]_MDE_1">
        <Description>
          <TranslatedText xml:lang="en">Sequence Number</TranslatedText>
        </Description>
      </ItemDef>
      <ItemDef DataType="text" Length="0" Name="CEGRPID" OID="IT.MDE.CEGRPID.[SDTM_CE]_MDE_1">
        <Description>
          <TranslatedText xml:lang="en">Group ID</TranslatedText>
        </Description>
      </ItemDef>
      <ItemDef DataType="text" Length="0" Name="CEREFID" OID="IT.MDE.CEREFID.[SDTM_CE]_MDE_1">
        <Description>
          <TranslatedText xml:lang="en">Reference ID</TranslatedText>
        </Description>
      </ItemDef>
      <ItemDef DataType="text" Length="0" Name="CESPID" OID="IT.MDE.CESPID.[SDTM_CE]_MDE_2">
        <Description>
          <TranslatedText xml:lang="en">Sponsor-Defined Identifier</TranslatedText>
        </Description>
      </ItemDef>
      <ItemDef DataType="text" Length="0" Name="CETERM" OID="IT.MDE.CETERM.[SDTM_CE]_MDE_1">
        <Description>
          <TranslatedText xml:lang="en">Reported Term for the Clinical Event</TranslatedText>
        </Description>
      </ItemDef>
      <ItemDef DataType="text" Length="0" Name="CEDECOD" OID="IT.MDE.CEDECOD.[SDTM_CE]_MDE_1">
        <Description>
          <TranslatedText xml:lang="en">Dictionary-Derived Term</TranslatedText>
        </Description>
      </ItemDef>
      <ItemDef DataType="text" Length="0" Name="CECAT" OID="IT.MDE.CECAT.[SDTM_CE]_MDE_1">
        <Description>
          <TranslatedText xml:lang="en">Category for Clinical Event</TranslatedText>
        </Description>
      </ItemDef>
      <ItemDef DataType="text" Length="0" Name="CESCAT" OID="IT.MDE.CESCAT.[SDTM_CE]_MDE_1">
        <Description>
          <TranslatedText xml:lang="en">Subcategory for Clinical Event</TranslatedText>
        </Description>
      </ItemDef>
      <ItemDef DataType="text" Length="0" Name="CEPRESP" OID="IT.MDE.CEPRESP.[SDTM_CE]_MDE_1">
        <Description>
          <TranslatedText xml:lang="en">Clinical Event Pre-Specified</TranslatedText>
        </Description>
        <CodeListRef CodeListOID="CL.VD.NY.[root]_VD"/>
      </ItemDef>
      <ItemDef DataType="text" Length="0" Name="CEOCCUR" OID="IT.MDE.CEOCCUR.[SDTM_CE]_MDE_1">
        <Description>
          <TranslatedText xml:lang="en">Clinical Event Occurrence</TranslatedText>
        </Description>
        <CodeListRef CodeListOID="CL.VD.NY.[root]_VD"/>
      </ItemDef>
      <ItemDef DataType="text" Length="0" Name="CESTAT" OID="IT.MDE.CESTAT.[SDTM_CE]_MDE_1">
        <Description>
          <TranslatedText xml:lang="en">Completion Status</TranslatedText>
        </Description>
        <CodeListRef CodeListOID="CL.VD.ND.[root]_VD"/>
      </ItemDef>
      <ItemDef DataType="text" Length="0" Name="CEREASND" OID="IT.MDE.CEREASND.[SDTM_CE]_MDE_1">
        <Description>
          <TranslatedText xml:lang="en">Reason Clinical Event Not Collected</TranslatedText>
        </Description>
      </ItemDef>
      <ItemDef DataType="text" Length="0" Name="CEBODSYS" OID="IT.MDE.CEBODSYS.[SDTM_CE]_MDE_2">
        <Description>
          <TranslatedText xml:lang="en">Body System or Organ Class</TranslatedText>
        </Description>
      </ItemDef>
      <ItemDef DataType="text" Length="0" Name="CESEV" OID="IT.MDE.CESEV.[SDTM_CE]_MDE_1">
        <Description>
          <TranslatedText xml:lang="en">Severity/Intensity</TranslatedText>
        </Description>
      </ItemDef>
      <ItemDef DataType="text" Length="0" Name="CEDTC" OID="IT.MDE.CEDTC.[SDTM_CE]_MDE_1">
        <Description>
          <TranslatedText xml:lang="en">Date/Time of Event Collection</TranslatedText>
        </Description>
      </ItemDef>
      <ItemDef DataType="text" Length="0" Name="CESTDTC" OID="IT.MDE.CESTDTC.[SDTM_CE]_MDE_1">
        <Description>
          <TranslatedText xml:lang="en">Start Date/Time of Clinical Event</TranslatedText>
        </Description>
      </ItemDef>
      <ItemDef DataType="text" Length="0" Name="CEENDTC" OID="IT.MDE.CEENDTC.[SDTM_CE]_MDE_1">
        <Description>
          <TranslatedText xml:lang="en">End Date/Time of Clinical Event</TranslatedText>
        </Description>
      </ItemDef>
      <ItemDef DataType="integer" Name="CEDY" OID="IT.MDE.CEDY.[SDTM_CE]_MDE_1">
        <Description>
          <TranslatedText xml:lang="en">Study Day of Event Collection</TranslatedText>
        </Description>
      </ItemDef>
      <ItemDef DataType="text" Length="0" Name="CESTRF" OID="IT.MDE.CESTRF.[SDTM_CE]_MDE_1">
        <Description>
          <TranslatedText xml:lang="en">Start Relative to Reference Period</TranslatedText>
        </Description>
        <CodeListRef CodeListOID="CL.VD.STENRF.[root]_VD"/>
      </ItemDef>
      <ItemDef DataType="text" Length="0" Name="CEENRF" OID="IT.MDE.CEENRF.[SDTM_CE]_MDE_1">
        <Description>
          <TranslatedText xml:lang="en">End Relative to Reference Period</TranslatedText>
        </Description>
        <CodeListRef CodeListOID="CL.VD.STENRF.[root]_VD"/>
      </ItemDef>
      <ItemDef DataType="text" Length="0" Name="CESTRTPT" OID="IT.MDE.CESTRTPT.[SDTM_CE]_MDE_2">
        <Description>
          <TranslatedText xml:lang="en">Start Relative to Reference Time Point</TranslatedText>
        </Description>
        <CodeListRef CodeListOID="CL.VD.STENRF.[root]_VD"/>
      </ItemDef>
      <ItemDef DataType="text" Length="0" Name="CESTTPT" OID="IT.MDE.CESTTPT.[SDTM_CE]_MDE_2">
        <Description>
          <TranslatedText xml:lang="en">Start Reference Time Point</TranslatedText>
        </Description>
      </ItemDef>
      <ItemDef DataType="text" Length="0" Name="CEENRTPT" OID="IT.MDE.CEENRTPT.[SDTM_CE]_MDE_2">
        <Description>
          <TranslatedText xml:lang="en">End Relative to Reference Time Point</TranslatedText>
        </Description>
        <CodeListRef CodeListOID="CL.VD.STENRF.[root]_VD"/>
      </ItemDef>
      <ItemDef DataType="text" Length="0" Name="CEENTPT" OID="IT.MDE.CEENTPT.[SDTM_CE]_MDE_1">
        <Description>
          <TranslatedText xml:lang="en">End Reference Time Point</TranslatedText>
        </Description>
      </ItemDef>
      <ItemDef DataType="text" Length="0" Name="STUDYID" OID="IT.MDE.STUDYID.[SDTM_DS]_MDE_1">
        <Description>
          <TranslatedText xml:lang="en">Study Identifier</TranslatedText>
        </Description>
      </ItemDef>
      <ItemDef DataType="text" Length="0" Name="DOMAIN" OID="IT.MDE.DOMAIN.[SDTM_DS]_MDE_1">
        <Description>
          <TranslatedText xml:lang="en">Domain Abbreviation</TranslatedText>
        </Description>
        <CodeListRef CodeListOID="CL.VD.DOMAIN.[SHARE_SDTM_DS]_VD_1"/>
      </ItemDef>
      <ItemDef DataType="text" Length="0" Name="USUBJID" OID="IT.MDE.USUBJID.[SDTM_DS]_MDE_1">
        <Description>
          <TranslatedText xml:lang="en">Unique Subject Identifier</TranslatedText>
        </Description>
      </ItemDef>
      <ItemDef DataType="float" Length="0" Name="DSSEQ" OID="IT.MDE.DSSEQ.[SDTM_DS]_MDE_1">
        <Description>
          <TranslatedText xml:lang="en">Sequence Number</TranslatedText>
        </Description>
      </ItemDef>
      <ItemDef DataType="text" Length="0" Name="DSGRPID" OID="IT.MDE.DSGRPID.[SDTM_DS]_MDE_1">
        <Description>
          <TranslatedText xml:lang="en">Group ID</TranslatedText>
        </Description>
      </ItemDef>
      <ItemDef DataType="text" Length="0" Name="DSREFID" OID="IT.MDE.DSREFID.[SDTM_DS]_MDE_1">
        <Description>
          <TranslatedText xml:lang="en">Reference ID</TranslatedText>
        </Description>
      </ItemDef>
      <ItemDef DataType="text" Length="0" Name="DSSPID" OID="IT.MDE.DSSPID.[SDTM_DS]_MDE_2">
        <Description>
          <TranslatedText xml:lang="en">Sponsor-Defined Identifier</TranslatedText>
        </Description>
      </ItemDef>
      <ItemDef DataType="text" Length="0" Name="DSTERM" OID="IT.MDE.DSTERM.[SDTM_DS]_MDE_2">
        <Description>
          <TranslatedText xml:lang="en">Reported Term for the Disposition Event</TranslatedText>
        </Description>
      </ItemDef>
      <ItemDef DataType="text" Length="0" Name="DSDECOD" OID="IT.MDE.DSDECOD.[SDTM_DS]_MDE_1">
        <Description>
          <TranslatedText xml:lang="en">Standardized Disposition Term</TranslatedText>
        </Description>
        <CodeListRef CodeListOID="CL.VD.NCOMPLT.[root]_VD"/>
      </ItemDef>
      <ItemDef DataType="text" Length="0" Name="DSCAT" OID="IT.MDE.DSCAT.[SDTM_DS]_MDE_2">
        <Description>
          <TranslatedText xml:lang="en">Category for Disposition Event</TranslatedText>
        </Description>
        <CodeListRef CodeListOID="CL.VD.DSCAT.[root]_VD"/>
      </ItemDef>
      <ItemDef DataType="text" Length="0" Name="DSSCAT" OID="IT.MDE.DSSCAT.[SDTM_DS]_MDE_1">
        <Description>
          <TranslatedText xml:lang="en">Subcategory for Disposition Event</TranslatedText>
        </Description>
      </ItemDef>
      <ItemDef DataType="text" Length="0" Name="EPOCH" OID="IT.MDE.EPOCH.[SDTM_DS]_MDE_2">
        <Description>
          <TranslatedText xml:lang="en">Epoch</TranslatedText>
        </Description>
        <CodeListRef CodeListOID="CL.VD.EPOCH.[root]_VD"/>
      </ItemDef>
      <ItemDef DataType="text" Length="0" Name="DSDTC" OID="IT.MDE.DSDTC.[SDTM_DS]_MDE_1">
        <Description>
          <TranslatedText xml:lang="en">Date/Time of Collection</TranslatedText>
        </Description>
      </ItemDef>
      <ItemDef DataType="text" Length="0" Name="DSSTDTC" OID="IT.MDE.DSSTDTC.[SDTM_DS]_MDE_1">
        <Description>
          <TranslatedText xml:lang="en">Start Date/Time of Disposition Event</TranslatedText>
        </Description>
      </ItemDef>
      <ItemDef DataType="float" Length="0" Name="DSSTDY" OID="IT.MDE.DSSTDY.[SDTM_DS]_MDE_1">
        <Description>
          <TranslatedText xml:lang="en">Study Day of Start of Disposition Event</TranslatedText>
        </Description>
      </ItemDef>
      <ItemDef DataType="text" Length="0" Name="STUDYID" OID="IT.MDE.STUDYID.[SDTM_DV]_MDE_1">
        <Description>
          <TranslatedText xml:lang="en">Study Identifier</TranslatedText>
        </Description>
      </ItemDef>
      <ItemDef DataType="text" Length="0" Name="DOMAIN" OID="IT.MDE.DOMAIN.[SDTM_DV]_MDE_1">
        <Description>
          <TranslatedText xml:lang="en">Domain Abbreviation</TranslatedText>
        </Description>
        <CodeListRef CodeListOID="CL.VD.DOMAIN.[SHARE_SDTM_DV]_VD_1"/>
      </ItemDef>
      <ItemDef DataType="text" Length="0" Name="USUBJID" OID="IT.MDE.USUBJID.[SDTM_DV]_MDE_1">
        <Description>
          <TranslatedText xml:lang="en">Unique Subject Identifier</TranslatedText>
        </Description>
      </ItemDef>
      <ItemDef DataType="float" Length="0" Name="DVSEQ" OID="IT.MDE.DVSEQ.[SDTM_DV]_MDE_1">
        <Description>
          <TranslatedText xml:lang="en">Sequence Number</TranslatedText>
        </Description>
      </ItemDef>
      <ItemDef DataType="text" Length="0" Name="DVREFID" OID="IT.MDE.DVREFID.[SDTM_DV]_MDE_1">
        <Description>
          <TranslatedText xml:lang="en">Reference ID</TranslatedText>
        </Description>
      </ItemDef>
      <ItemDef DataType="text" Length="0" Name="DVSPID" OID="IT.MDE.DVSPID.[SDTM_DV]_MDE_2">
        <Description>
          <TranslatedText xml:lang="en">Sponsor-Defined Identifier</TranslatedText>
        </Description>
      </ItemDef>
      <ItemDef DataType="text" Length="0" Name="DVDECOD" OID="IT.MDE.DVDECOD.[SDTM_DV]_MDE_1">
        <Description>
          <TranslatedText xml:lang="en">Protocol Deviation Coded Term</TranslatedText>
        </Description>
      </ItemDef>
      <ItemDef DataType="text" Length="0" Name="DVCAT" OID="IT.MDE.DVCAT.[SDTM_DV]_MDE_1">
        <Description>
          <TranslatedText xml:lang="en">Category for Protocol Deviation</TranslatedText>
        </Description>
      </ItemDef>
      <ItemDef DataType="text" Length="0" Name="DVSCAT" OID="IT.MDE.DVSCAT.[SDTM_DV]_MDE_1">
        <Description>
          <TranslatedText xml:lang="en">Subcategory for Protocol Deviation</TranslatedText>
        </Description>
      </ItemDef>
      <ItemDef DataType="text" Length="0" Name="EPOCH" OID="IT.MDE.EPOCH.[SDTM_DV]_MDE_2">
        <Description>
          <TranslatedText xml:lang="en">Epoch</TranslatedText>
        </Description>
        <CodeListRef CodeListOID="CL.VD.EPOCH.[root]_VD"/>
      </ItemDef>
      <ItemDef DataType="text" Length="0" Name="DVSTDTC" OID="IT.MDE.DVSTDTC.[SDTM_DV]_MDE_1">
        <Description>
          <TranslatedText xml:lang="en">Start Date/Time of Deviation</TranslatedText>
        </Description>
      </ItemDef>
      <ItemDef DataType="text" Length="0" Name="DVENDTC" OID="IT.MDE.DVENDTC.[SDTM_DV]_MDE_1">
        <Description>
          <TranslatedText xml:lang="en">End Date/Time of Deviation</TranslatedText>
        </Description>
      </ItemDef>
      <ItemDef DataType="text" Length="0" Name="DVTERM" OID="IT.MDE.DVTERM.[SDTM_DV]_MDE_1">
        <Description>
          <TranslatedText xml:lang="en">Protocol Deviation Term</TranslatedText>
        </Description>
      </ItemDef>
      <ItemDef DataType="text" Length="0" Name="STUDYID" OID="IT.MDE.STUDYID.[SDTM_HO]_MDE_1">
        <Description>
          <TranslatedText xml:lang="en">Study Identifier</TranslatedText>
        </Description>
      </ItemDef>
      <ItemDef DataType="text" Length="0" Name="DOMAIN" OID="IT.MDE.DOMAIN.[SDTM_HO]_MDE_1">
        <Description>
          <TranslatedText xml:lang="en">Domain Abbreviation</TranslatedText>
        </Description>
        <CodeListRef CodeListOID="CL.VD.DOMAIN.[SHARE_SDTM_HO]_VD_1"/>
      </ItemDef>
      <ItemDef DataType="text" Length="0" Name="USUBJID" OID="IT.MDE.USUBJID.[SDTM_HO]_MDE_1">
        <Description>
          <TranslatedText xml:lang="en">Unique Subject Identifier</TranslatedText>
        </Description>
      </ItemDef>
      <ItemDef DataType="float" Length="0" Name="HOSEQ" OID="IT.MDE.HOSEQ.[SDTM_HO]_MDE_1">
        <Description>
          <TranslatedText xml:lang="en">Sequence Number</TranslatedText>
        </Description>
      </ItemDef>
      <ItemDef DataType="text" Length="0" Name="HOGRPID" OID="IT.MDE.HOGRPID.[SDTM_HO]_MDE_1">
        <Description>
          <TranslatedText xml:lang="en">Group ID</TranslatedText>
        </Description>
      </ItemDef>
      <ItemDef DataType="text" Length="0" Name="HOREFID" OID="IT.MDE.HOREFID.[SDTM_HO]_MDE_1">
        <Description>
          <TranslatedText xml:lang="en">Reference ID</TranslatedText>
        </Description>
      </ItemDef>
      <ItemDef DataType="text" Length="0" Name="HOSPID" OID="IT.MDE.HOSPID.[SDTM_HO]_MDE_1">
        <Description>
          <TranslatedText xml:lang="en">Sponsor-Defined Identifier</TranslatedText>
        </Description>
      </ItemDef>
      <ItemDef DataType="text" Length="0" Name="HOTERM" OID="IT.MDE.HOTERM.[SDTM_HO]_MDE_1">
        <Description>
          <TranslatedText xml:lang="en">Reported Term for the Healthcare Encounter</TranslatedText>
        </Description>
      </ItemDef>
      <ItemDef DataType="text" Length="0" Name="HODECOD" OID="IT.MDE.HODECOD.[SDTM_HO]_MDE_1">
        <Description>
          <TranslatedText xml:lang="en">Dictionary-Derived Term for the Healthcare Encounter</TranslatedText>
        </Description>
      </ItemDef>
      <ItemDef DataType="text" Length="0" Name="HOCAT" OID="IT.MDE.HOCAT.[SDTM_HO]_MDE_1">
        <Description>
          <TranslatedText xml:lang="en">Category for Healthcare Encounter</TranslatedText>
        </Description>
      </ItemDef>
      <ItemDef DataType="text" Length="0" Name="HOSCAT" OID="IT.MDE.HOSCAT.[SDTM_HO]_MDE_1">
        <Description>
          <TranslatedText xml:lang="en">Subcategory for Healthcare Encounter</TranslatedText>
        </Description>
      </ItemDef>
      <ItemDef DataType="text" Length="0" Name="HOPRESP" OID="IT.MDE.HOPRESP.[SDTM_HO]_MDE_1">
        <Description>
          <TranslatedText xml:lang="en">Pre-Specified Healthcare Encounter</TranslatedText>
        </Description>
        <CodeListRef CodeListOID="CL.VD.NY.[root]_VD"/>
      </ItemDef>
      <ItemDef DataType="text" Length="0" Name="HOOCCUR" OID="IT.MDE.HOOCCUR.[SDTM_HO]_MDE_1">
        <Description>
          <TranslatedText xml:lang="en">Healthcare Encounter Occurrence</TranslatedText>
        </Description>
        <CodeListRef CodeListOID="CL.VD.NY.[root]_VD"/>
      </ItemDef>
      <ItemDef DataType="text" Length="0" Name="HOSTAT" OID="IT.MDE.HOSTAT.[SDTM_HO]_MDE_1">
        <Description>
          <TranslatedText xml:lang="en">Completion Status</TranslatedText>
        </Description>
        <CodeListRef CodeListOID="CL.VD.ND.[root]_VD"/>
      </ItemDef>
      <ItemDef DataType="text" Length="0" Name="HOREASND" OID="IT.MDE.HOREASND.[SDTM_HO]_MDE_1">
        <Description>
          <TranslatedText xml:lang="en">Reason Healthcare Encounter Not Done</TranslatedText>
        </Description>
      </ItemDef>
      <ItemDef DataType="text" Length="0" Name="HODTC" OID="IT.MDE.HODTC.[SDTM_HO]_MDE_1">
        <Description>
          <TranslatedText xml:lang="en">Date/Time of Event Collection</TranslatedText>
        </Description>
      </ItemDef>
      <ItemDef DataType="text" Length="0" Name="HOSTDTC" OID="IT.MDE.HOSTDTC.[SDTM_HO]_MDE_1">
        <Description>
          <TranslatedText xml:lang="en">Start Date/Time of Healthcare Encounter</TranslatedText>
        </Description>
      </ItemDef>
      <ItemDef DataType="text" Length="0" Name="HOENDTC" OID="IT.MDE.HOENDTC.[SDTM_HO]_MDE_1">
        <Description>
          <TranslatedText xml:lang="en">End Date/Time of Healthcare Encounter</TranslatedText>
        </Description>
      </ItemDef>
      <ItemDef DataType="integer" Name="HODY" OID="IT.MDE.HODY.[SDTM_HO]_MDE_1">
        <Description>
          <TranslatedText xml:lang="en">Study Day of Event Collection</TranslatedText>
        </Description>
      </ItemDef>
      <ItemDef DataType="float" Length="0" Name="HOSTDY" OID="IT.MDE.HOSTDY.[SDTM_HO]_MDE_1">
        <Description>
          <TranslatedText xml:lang="en">Study Day of Start of Healthcare Encounter</TranslatedText>
        </Description>
      </ItemDef>
      <ItemDef DataType="float" Length="0" Name="HOENDY" OID="IT.MDE.HOENDY.[SDTM_HO]_MDE_1">
        <Description>
          <TranslatedText xml:lang="en">Study Day of End of Healthcare Encounter</TranslatedText>
        </Description>
      </ItemDef>
      <ItemDef DataType="text" Length="0" Name="HODUR" OID="IT.MDE.HODUR.[SDTM_HO]_MDE_1">
        <Description>
          <TranslatedText xml:lang="en">Duration of Healthcare Encounter</TranslatedText>
        </Description>
      </ItemDef>
      <ItemDef DataType="text" Length="0" Name="HOSTRTPT" OID="IT.MDE.HOSTRTPT.[SDTM_HO]_MDE_1">
        <Description>
          <TranslatedText xml:lang="en">Start Relative to Reference Time Point</TranslatedText>
        </Description>
        <CodeListRef CodeListOID="CL.VD.STENRF.[root]_VD"/>
      </ItemDef>
      <ItemDef DataType="text" Length="0" Name="HOSTTPT" OID="IT.MDE.HOSTTPT.[SDTM_HO]_MDE_1">
        <Description>
          <TranslatedText xml:lang="en">Start Reference Time Point</TranslatedText>
        </Description>
      </ItemDef>
      <ItemDef DataType="text" Length="0" Name="HOENRTPT" OID="IT.MDE.HOENRTPT.[SDTM_HO]_MDE_1">
        <Description>
          <TranslatedText xml:lang="en">End Relative to Reference Time Point</TranslatedText>
        </Description>
        <CodeListRef CodeListOID="CL.VD.STENRF.[root]_VD"/>
      </ItemDef>
      <ItemDef DataType="text" Length="0" Name="HOENTPT" OID="IT.MDE.HOENTPT.[SDTM_HO]_MDE_1">
        <Description>
          <TranslatedText xml:lang="en">End Reference Time Point</TranslatedText>
        </Description>
      </ItemDef>
      <ItemDef DataType="text" Length="0" Name="STUDYID" OID="IT.MDE.STUDYID.[SDTM_MH]_MDE_1">
        <Description>
          <TranslatedText xml:lang="en">Study Identifier</TranslatedText>
        </Description>
      </ItemDef>
      <ItemDef DataType="text" Length="0" Name="DOMAIN" OID="IT.MDE.DOMAIN.[SDTM_MH]_MDE_1">
        <Description>
          <TranslatedText xml:lang="en">Domain Abbreviation</TranslatedText>
        </Description>
        <CodeListRef CodeListOID="CL.VD.DOMAIN.[SHARE_SDTM_MH]_VD_1"/>
      </ItemDef>
      <ItemDef DataType="text" Length="0" Name="USUBJID" OID="IT.MDE.USUBJID.[SDTM_MH]_MDE_1">
        <Description>
          <TranslatedText xml:lang="en">Unique Subject Identifier</TranslatedText>
        </Description>
      </ItemDef>
      <ItemDef DataType="float" Length="0" Name="MHSEQ" OID="IT.MDE.MHSEQ.[SDTM_MH]_MDE_1">
        <Description>
          <TranslatedText xml:lang="en">Sequence Number</TranslatedText>
        </Description>
      </ItemDef>
      <ItemDef DataType="text" Length="0" Name="MHGRPID" OID="IT.MDE.MHGRPID.[SDTM_MH]_MDE_1">
        <Description>
          <TranslatedText xml:lang="en">Group ID</TranslatedText>
        </Description>
      </ItemDef>
      <ItemDef DataType="text" Length="0" Name="MHREFID" OID="IT.MDE.MHREFID.[SDTM_MH]_MDE_1">
        <Description>
          <TranslatedText xml:lang="en">Reference ID</TranslatedText>
        </Description>
      </ItemDef>
      <ItemDef DataType="text" Length="0" Name="MHSPID" OID="IT.MDE.MHSPID.[SDTM_MH]_MDE_2">
        <Description>
          <TranslatedText xml:lang="en">Sponsor-Defined Identifier</TranslatedText>
        </Description>
      </ItemDef>
      <ItemDef DataType="text" Length="0" Name="MHTERM" OID="IT.MDE.MHTERM.[SDTM_MH]_MDE_1">
        <Description>
          <TranslatedText xml:lang="en">Reported Term for the Medical History</TranslatedText>
        </Description>
      </ItemDef>
      <ItemDef DataType="text" Length="0" Name="MHMODIFY" OID="IT.MDE.MHMODIFY.[SDTM_MH]_MDE_1">
        <Description>
          <TranslatedText xml:lang="en">Modified Reported Term</TranslatedText>
        </Description>
      </ItemDef>
      <ItemDef DataType="text" Length="0" Name="MHDECOD" OID="IT.MDE.MHDECOD.[SDTM_MH]_MDE_2">
        <Description>
          <TranslatedText xml:lang="en">Dictionary-Derived Term</TranslatedText>
        </Description>
      </ItemDef>
      <ItemDef DataType="text" Length="0" Name="MHCAT" OID="IT.MDE.MHCAT.[SDTM_MH]_MDE_1">
        <Description>
          <TranslatedText xml:lang="en">Category for Medical History</TranslatedText>
        </Description>
      </ItemDef>
      <ItemDef DataType="text" Length="0" Name="MHSCAT" OID="IT.MDE.MHSCAT.[SDTM_MH]_MDE_1">
        <Description>
          <TranslatedText xml:lang="en">Subcategory for Medical History</TranslatedText>
        </Description>
      </ItemDef>
      <ItemDef DataType="text" Length="0" Name="MHPRESP" OID="IT.MDE.MHPRESP.[SDTM_MH]_MDE_2">
        <Description>
          <TranslatedText xml:lang="en">Medical History Event Pre-Specified</TranslatedText>
        </Description>
        <CodeListRef CodeListOID="CL.VD.NY.[root]_VD"/>
      </ItemDef>
      <ItemDef DataType="text" Length="0" Name="MHOCCUR" OID="IT.MDE.MHOCCUR.[SDTM_MH]_MDE_1">
        <Description>
          <TranslatedText xml:lang="en">Medical History Occurrence</TranslatedText>
        </Description>
        <CodeListRef CodeListOID="CL.VD.NY.[root]_VD"/>
      </ItemDef>
      <ItemDef DataType="text" Length="0" Name="MHSTAT" OID="IT.MDE.MHSTAT.[SDTM_MH]_MDE_2">
        <Description>
          <TranslatedText xml:lang="en">Completion Status</TranslatedText>
        </Description>
        <CodeListRef CodeListOID="CL.VD.ND.[root]_VD"/>
      </ItemDef>
      <ItemDef DataType="text" Length="0" Name="MHREASND" OID="IT.MDE.MHREASND.[SDTM_MH]_MDE_2">
        <Description>
          <TranslatedText xml:lang="en">Reason Medical History Not Done or Not Occurred</TranslatedText>
        </Description>
      </ItemDef>
      <ItemDef DataType="text" Length="0" Name="MHBODSYS" OID="IT.MDE.MHBODSYS.[SDTM_MH]_MDE_2">
        <Description>
          <TranslatedText xml:lang="en">Body System or Organ Class</TranslatedText>
        </Description>
      </ItemDef>
      <ItemDef DataType="text" Length="0" Name="MHDTC" OID="IT.MDE.MHDTC.[SDTM_MH]_MDE_1">
        <Description>
          <TranslatedText xml:lang="en">Date/Time of History Collection</TranslatedText>
        </Description>
      </ItemDef>
      <ItemDef DataType="text" Length="0" Name="MHSTDTC" OID="IT.MDE.MHSTDTC.[SDTM_MH]_MDE_1">
        <Description>
          <TranslatedText xml:lang="en">Start Date/Time of Medical History Event</TranslatedText>
        </Description>
      </ItemDef>
      <ItemDef DataType="text" Length="0" Name="MHENDTC" OID="IT.MDE.MHENDTC.[SDTM_MH]_MDE_1">
        <Description>
          <TranslatedText xml:lang="en">End Date/Time of Medical History Event</TranslatedText>
        </Description>
      </ItemDef>
      <ItemDef DataType="integer" Name="MHDY" OID="IT.MDE.MHDY.[SDTM_MH]_MDE_1">
        <Description>
          <TranslatedText xml:lang="en">Study Day of History Collection</TranslatedText>
        </Description>
      </ItemDef>
      <ItemDef DataType="text" Length="0" Name="MHENRF" OID="IT.MDE.MHENRF.[SDTM_MH]_MDE_1">
        <Description>
          <TranslatedText xml:lang="en">End Relative to Reference Period</TranslatedText>
        </Description>
        <CodeListRef CodeListOID="CL.VD.STENRF.[root]_VD"/>
      </ItemDef>
      <ItemDef DataType="text" Length="0" Name="MHENRTPT" OID="IT.MDE.MHENRTPT.[SDTM_MH]_MDE_2">
        <Description>
          <TranslatedText xml:lang="en">End Relative to Reference Time Point</TranslatedText>
        </Description>
        <CodeListRef CodeListOID="CL.VD.ENRTPT.[SHARE]_VD_1"/>
      </ItemDef>
      <ItemDef DataType="text" Length="0" Name="MHENTPT" OID="IT.MDE.MHENTPT.[SDTM_MH]_MDE_1">
        <Description>
          <TranslatedText xml:lang="en">End Reference Time Point</TranslatedText>
        </Description>
      </ItemDef>
      <ItemDef DataType="text" Length="0" Name="STUDYID" OID="IT.MDE.STUDYID.[SDTM_CM]_MDE_1">
        <Description>
          <TranslatedText xml:lang="en">Study Identifier</TranslatedText>
        </Description>
      </ItemDef>
      <ItemDef DataType="text" Length="0" Name="DOMAIN" OID="IT.MDE.DOMAIN.[SDTM_CM]_MDE_1">
        <Description>
          <TranslatedText xml:lang="en">Domain Abbreviation</TranslatedText>
        </Description>
        <CodeListRef CodeListOID="CL.VD.DOMAIN.[SHARE_SDTM_CM]_VD_1"/>
      </ItemDef>
      <ItemDef DataType="text" Length="0" Name="USUBJID" OID="IT.MDE.USUBJID.[SDTM_CM]_MDE_1">
        <Description>
          <TranslatedText xml:lang="en">Unique Subject Identifier</TranslatedText>
        </Description>
      </ItemDef>
      <ItemDef DataType="float" Length="0" Name="CMSEQ" OID="IT.MDE.CMSEQ.[SDTM_CM]_MDE_1">
        <Description>
          <TranslatedText xml:lang="en">Sequence Number</TranslatedText>
        </Description>
      </ItemDef>
      <ItemDef DataType="text" Length="0" Name="CMGRPID" OID="IT.MDE.CMGRPID.[SDTM_CM]_MDE_1">
        <Description>
          <TranslatedText xml:lang="en">Group ID</TranslatedText>
        </Description>
      </ItemDef>
      <ItemDef DataType="text" Length="0" Name="CMSPID" OID="IT.MDE.CMSPID.[SDTM_CM]_MDE_2">
        <Description>
          <TranslatedText xml:lang="en">Sponsor-Defined Identifier</TranslatedText>
        </Description>
      </ItemDef>
      <ItemDef DataType="text" Length="0" Name="CMTRT" OID="IT.MDE.CMTRT.[SDTM_CM]_MDE_1">
        <Description>
          <TranslatedText xml:lang="en">Reported Name of Drug, Med, or Therapy</TranslatedText>
        </Description>
      </ItemDef>
      <ItemDef DataType="text" Length="0" Name="CMMODIFY" OID="IT.MDE.CMMODIFY.[SDTM_CM]_MDE_1">
        <Description>
          <TranslatedText xml:lang="en">Modified Reported Name</TranslatedText>
        </Description>
      </ItemDef>
      <ItemDef DataType="text" Length="0" Name="CMDECOD" OID="IT.MDE.CMDECOD.[SDTM_CM]_MDE_1">
        <Description>
          <TranslatedText xml:lang="en">Standardized Medication Name</TranslatedText>
        </Description>
      </ItemDef>
      <ItemDef DataType="text" Length="0" Name="CMCAT" OID="IT.MDE.CMCAT.[SDTM_CM]_MDE_1">
        <Description>
          <TranslatedText xml:lang="en">Category for Medication</TranslatedText>
        </Description>
      </ItemDef>
      <ItemDef DataType="text" Length="0" Name="CMSCAT" OID="IT.MDE.CMSCAT.[SDTM_CM]_MDE_1">
        <Description>
          <TranslatedText xml:lang="en">Subcategory for Medication</TranslatedText>
        </Description>
      </ItemDef>
      <ItemDef DataType="text" Length="0" Name="CMPRESP" OID="IT.MDE.CMPRESP.[SDTM_CM]_MDE_1">
        <Description>
          <TranslatedText xml:lang="en">CM Pre-Specified</TranslatedText>
        </Description>
        <CodeListRef CodeListOID="CL.VD.NY.[root]_VD"/>
      </ItemDef>
      <ItemDef DataType="text" Length="0" Name="CMOCCUR" OID="IT.MDE.CMOCCUR.[SDTM_CM]_MDE_1">
        <Description>
          <TranslatedText xml:lang="en">CM Occurrence</TranslatedText>
        </Description>
        <CodeListRef CodeListOID="CL.VD.NY.[root]_VD"/>
      </ItemDef>
      <ItemDef DataType="text" Length="0" Name="CMSTAT" OID="IT.MDE.CMSTAT.[SDTM_CM]_MDE_1">
        <Description>
          <TranslatedText xml:lang="en">Completion Status</TranslatedText>
        </Description>
        <CodeListRef CodeListOID="CL.VD.ND.[root]_VD"/>
      </ItemDef>
      <ItemDef DataType="text" Length="0" Name="CMREASND" OID="IT.MDE.CMREASND.[SDTM_CM]_MDE_1">
        <Description>
          <TranslatedText xml:lang="en">Reason Medication Not Collected</TranslatedText>
        </Description>
      </ItemDef>
      <ItemDef DataType="text" Length="0" Name="CMINDC" OID="IT.MDE.CMINDC.[SDTM_CM]_MDE_1">
        <Description>
          <TranslatedText xml:lang="en">Indication</TranslatedText>
        </Description>
      </ItemDef>
      <ItemDef DataType="text" Length="0" Name="CMCLAS" OID="IT.MDE.CMCLAS.[SDTM_CM]_MDE_2">
        <Description>
          <TranslatedText xml:lang="en">Medication Class</TranslatedText>
        </Description>
      </ItemDef>
      <ItemDef DataType="text" Length="0" Name="CMCLASCD" OID="IT.MDE.CMCLASCD.[SDTM_CM]_MDE_2">
        <Description>
          <TranslatedText xml:lang="en">Medication Class Code</TranslatedText>
        </Description>
      </ItemDef>
      <ItemDef DataType="float" Length="0" Name="CMDOSE" OID="IT.MDE.CMDOSE.[SDTM_CM]_MDE_2">
        <Description>
          <TranslatedText xml:lang="en">Dose per Administration</TranslatedText>
        </Description>
      </ItemDef>
      <ItemDef DataType="text" Length="0" Name="CMDOSTXT" OID="IT.MDE.CMDOSTXT.[SDTM_CM]_MDE_2">
        <Description>
          <TranslatedText xml:lang="en">Dose Description</TranslatedText>
        </Description>
      </ItemDef>
      <ItemDef DataType="text" Length="0" Name="CMDOSU" OID="IT.MDE.CMDOSU.[SDTM_CM]_MDE_2">
        <Description>
          <TranslatedText xml:lang="en">Dose Units</TranslatedText>
        </Description>
        <CodeListRef CodeListOID="CL.VD.UNIT.[root]_VD"/>
      </ItemDef>
      <ItemDef DataType="text" Length="0" Name="CMDOSFRM" OID="IT.MDE.CMDOSFRM.[SDTM_CM]_MDE_1">
        <Description>
          <TranslatedText xml:lang="en">Dose Form</TranslatedText>
        </Description>
        <CodeListRef CodeListOID="CL.VD.FRM.[root]_VD"/>
      </ItemDef>
      <ItemDef DataType="text" Length="0" Name="CMDOSFRQ" OID="IT.MDE.CMDOSFRQ.[SDTM_CM]_MDE_1">
        <Description>
          <TranslatedText xml:lang="en">Dosing Frequency per Interval</TranslatedText>
        </Description>
        <CodeListRef CodeListOID="CL.VD.FREQ.[root]_VD"/>
      </ItemDef>
      <ItemDef DataType="float" Length="0" Name="CMDOSTOT" OID="IT.MDE.CMDOSTOT.[SDTM_CM]_MDE_2">
        <Description>
          <TranslatedText xml:lang="en">Total Daily Dose</TranslatedText>
        </Description>
      </ItemDef>
      <ItemDef DataType="text" Length="0" Name="CMDOSRGM" OID="IT.MDE.CMDOSRGM.[SDTM_CM]_MDE_1">
        <Description>
          <TranslatedText xml:lang="en">Intended Dose Regimen</TranslatedText>
        </Description>
      </ItemDef>
      <ItemDef DataType="text" Length="0" Name="CMROUTE" OID="IT.MDE.CMROUTE.[SDTM_CM]_MDE_1">
        <Description>
          <TranslatedText xml:lang="en">Route of Administration</TranslatedText>
        </Description>
        <CodeListRef CodeListOID="CL.VD.ROUTE.[root]_VD"/>
      </ItemDef>
      <ItemDef DataType="text" Length="0" Name="CMSTDTC" OID="IT.MDE.CMSTDTC.[SDTM_CM]_MDE_1">
        <Description>
          <TranslatedText xml:lang="en">Start Date/Time of Medication</TranslatedText>
        </Description>
      </ItemDef>
      <ItemDef DataType="text" Length="0" Name="CMENDTC" OID="IT.MDE.CMENDTC.[SDTM_CM]_MDE_1">
        <Description>
          <TranslatedText xml:lang="en">End Date/Time of Medication</TranslatedText>
        </Description>
      </ItemDef>
      <ItemDef DataType="float" Length="0" Name="CMSTDY" OID="IT.MDE.CMSTDY.[SDTM_CM]_MDE_1">
        <Description>
          <TranslatedText xml:lang="en">Study Day of Start of Medication</TranslatedText>
        </Description>
      </ItemDef>
      <ItemDef DataType="float" Length="0" Name="CMENDY" OID="IT.MDE.CMENDY.[SDTM_CM]_MDE_1">
        <Description>
          <TranslatedText xml:lang="en">Study Day of End of Medication</TranslatedText>
        </Description>
      </ItemDef>
      <ItemDef DataType="text" Length="0" Name="CMDUR" OID="IT.MDE.CMDUR.[SDTM_CM]_MDE_1">
        <Description>
          <TranslatedText xml:lang="en">Duration of Medication</TranslatedText>
        </Description>
      </ItemDef>
      <ItemDef DataType="text" Length="0" Name="CMSTRF" OID="IT.MDE.CMSTRF.[SDTM_CM]_MDE_2">
        <Description>
          <TranslatedText xml:lang="en">Start Relative to Reference Period</TranslatedText>
